pid,action_times,actions,block,correct,delays,key_press,path,prs,queries,questions,responses,rewards,rt,score,simulation_mode,state_rewards,time_elapsed,trial_index,trial_time,trial_id,trial_type,view_history
44,,,,,,,,,,,"{""Q0"":""I've learned to check enough nodes in order to maximize the chances of selecting the best route. Toward the end, I have learned to continue checking nodes until I find the better one and to skip over checking nodes if the previous node have a +10 value.""}",,225081,,,,512165,,,,survey-text,
44,,,,,,,,,,,"{""Q0"":""31"",""Q1"":""Male""}",,5833,,,,792277,,,,survey-text,
2,,,,,,,,,,,"{""Q0"":""Which nodes to click on""}",,17169,,,,426355,,,,survey-text,
6,,,,,,,,,,,"{""Q0"":""Nothing. I didn't know if I should try the node inspecter or not. I feel like I should have done that. It felt like a trap.""}",,55184,,,,324548,,,,survey-text,
6,,,,,,,,,,,"{""Q0"":""28"",""Q1"":""Female""}",,7390,,,,729298,,,,survey-text,
10,,,,,,,,,,,"{""Q0"":""to be more selective about the nodes i check""}",,51366,,,,534309,,,,survey-text,
10,,,,,,,,,,,"{""Q0"":""37"",""Q1"":""male""}",,5595,,,,974325,,,,survey-text,
9,,,,,,,,,,,"{""Q0"":""I'm thinking that if I take the same route every time I might increase my chances but that would be boring so I'll probably move a different way each game. Amazon turk has been slow this week so I hope I earn a bonus. ""}",,72317,,,,379109,,,,survey-text,
9,,,,,,,,,,,"{""Q0"":""55"",""Q1"":""female""}",,9761,,,,640402,,,,survey-text,
22,,,,,,,,,,,"{""Q0"":""I have learned to use my $1 node choice carefully.""}",,40005,,,,639587,,,,survey-text,
22,,,,,,,,,,,"{""Q0"":""53"",""Q1"":""Female""}",,10199,,,,905758,,,,survey-text,
12,,,,,,,,,,,"{""Q0"":""I was focusing more on the end pieces rather than all of the pieces on every branch. I chose the first side that resulted in a positive figure .""}",,37922,,,,275807,,,,survey-text,
12,,,,,,,,,,,"{""Q0"":""30"",""Q1"":""male""}",,9506,,,,521759,,,,survey-text,
59,,,,,,,,,,,"{""Q0"":""trying to not repeat a move up or down that was negative the last time I made a choice""}",,40378,,,,273764,,,,survey-text,
59,,,,,,,,,,,"{""Q0"":""67"",""Q1"":""female""}",,16440,,,,545100,,,,survey-text,
21,,,,,,,,,,,"{""Q0"":""I am trying to look for positive amounts and go the right path.""}",,35858,,,,229860,,,,survey-text,
21,,,,,,,,,,,"{""Q0"":""30"",""Q1"":""female""}",,10054,,,,465362,,,,survey-text,
49,,,,,,,,,,,"{""Q0"":""I am inspecting the nodes, but not too many. I learned that you should check more nodes before you move through the web.""}",,59193,,,,645464,,,,survey-text,
49,,,,,,,,,,,"{""Q0"":""53"",""Q1"":""female""}",,10968,,,,1045045,,,,survey-text,
47,,,,,,,,,,,"{""Q0"":"" it is very hard to know it ""}",,18934,,,,845850,,,,survey-text,
47,,,,,,,,,,,"{""Q0"":""45"",""Q1"":""male""}",,16978,,,,1126084,,,,survey-text,
60,,,,,,,,,,,"{""Q0"":""wait that was training, ugh. I was mostly confused why it kept making me wait, I had no way to plan strategy since it kept distracting me.""}",,45072,,,,411997,,,,survey-text,
60,,,,,,,,,,,"{""Q0"":""30"",""Q1"":""male""}",,13337,,,,705994,,,,survey-text,
20,,,,,,,,,,,"{""Q0"":""I know which ones to click on now.""}",,17473,,,,394843,,,,survey-text,
20,,,,,,,,,,,"{""Q0"":""26"",""Q1"":""male""}",,15345,,,,668411,,,,survey-text,
54,,,,,,,,,,,"{""Q0"":""I have noticed certain patterns where I lose more money. I should definitely be using the node inspector sparingly if I wish to do well in this game.""}",,33777,,,,369642,,,,survey-text,
54,,,,,,,,,,,"{""Q0"":""40"",""Q1"":""male""}",,7299,,,,617510,,,,survey-text,
52,,,,,,,,,,,"{""Q0"":""I was starting to figure out which blocks to select""}",,11334,,,,309947,,,,survey-text,
52,,,,,,,,,,,"{""Q0"":""41"",""Q1"":""Male""}",,4630,,,,563792,,,,survey-text,
41,,,,,,,,,,,"{""Q0"":""I need to check more nodes than I originally thought I should check.""}",,20276,,,,379508,,,,survey-text,
41,,,,,,,,,,,"{""Q0"":""32"",""Q1"":""female""}",,6970,,,,666321,,,,survey-text,
53,,,,,,,,,,,"{""Q0"":""It seems that more initial clicks have been better for me, so I will click more before moving""}",,84225,,,,435364,,,,survey-text,
53,,,,,,,,,,,"{""Q0"":""49"",""Q1"":""female""}",,12362,,,,829197,,,,survey-text,
11,,,,,,,,,,,"{""Q0"":""I am choosing my click reveals more carefully and have narrowed my choices down more.""}",,66250,,,,564366,,,,survey-text,
11,,,,,,,,,,,"{""Q0"":""31"",""Q1"":""female""}",,17862,,,,1143300,,,,survey-text,
23,,,,,,,,,,,"{""Q0"":""Click in corners to see outcomes""}",,23019,,,,272440,,,,survey-text,
23,,,,,,,,,,,"{""Q0"":""45"",""Q1"":""female""}",,12880,,,,567867,,,,survey-text,
25,,,,,,,,,,,"{""Q0"":""I will click less nodes and click the appropriate ones rather than just random ones around the web.""}",,20895,,,,266111,,,,survey-text,
25,,,,,,,,,,,"{""Q0"":""30"",""Q1"":""female""}",,7294,,,,508015,,,,survey-text,
34,,,,,,,,,,,"{""Q0"":""I'll try to avoid losing money and pick which way to go better.""}",,29057,,,,265362,,,,survey-text,
34,,,,,,,,,,,"{""Q0"":""34"",""Q1"":""female""}",,6724,,,,518225,,,,survey-text,
57,,,,,,,,,,,"{""Q0"":""I have learned to spend the $1 to check the node at the beginning.""}",,20571,,,,546445,,,,survey-text,
57,,,,,,,,,,,"{""Q0"":""51"",""Q1"":""Female""}",,6589,,,,868899,,,,survey-text,
1,,,,,,,,,,,"{""Q0"":""I learned to not waste clicking on nodes when I see a good set path and checking the end result of a path.""}",,68190,,,,466814,,,,survey-text,
1,,,,,,,,,,,"{""Q0"":""34"",""Q1"":""male""}",,16589,,,,815645,,,,survey-text,
37,,,,,,,,,,,"{""Q0"":""I am just going with my gut feelings on this.""}",,12056,,,,431055,,,,survey-text,
37,,,,,,,,,,,"{""Q0"":""36"",""Q1"":""male""}",,7230,,,,676668,,,,survey-text,
24,,,,,,,,,,,"{""Q0"":""I learned that I dislike when the system tells me I have to wait and that stopped me from caring about checking any of the options just so it would stop asking.  Don't do that in the future.""}",,27827,,,,600692,,,,survey-text,
24,,,,,,,,,,,"{""Q0"":""33"",""Q1"":""Male""}",,8298,,,,1427212,,,,survey-text,
18,,,,,,,,,,,"{""Q0"":""I should examine the adjacent nodes until I find a positive number. Then I should check the nodes nex to that one to find a pattern that will lead to a high amount. If I don't see a good pattern then check some other nodes.""}",,87759,,,,414953,,,,survey-text,
18,,,,,,,,,,,"{""Q0"":""32"",""Q1"":""Male""}",,13923,,,,720549,,,,survey-text,
26,,,,,,,,,,,"{""Q0"":""Inspect the least amount possible""}",,34190,,,,352669,,,,survey-text,
26,,,,,,,,,,,"{""Q0"":""28"",""Q1"":""Male""}",,9929,,,,592718,,,,survey-text,
58,,,,,,,,,,,"{""Q0"":""What order I need to inspect in.""}",,17944,,,,236801,,,,survey-text,
58,,,,,,,,,,,"{""Q0"":""32"",""Q1"":""male""}",,7289,,,,478111,,,,survey-text,
14,,,,,,,,,,,"{""Q0"":""Looking at all the nodes because it gets angry with me.""}",,15521,,,,494234,,,,survey-text,
14,,,,,,,,,,,"{""Q0"":""30"",""Q1"":""female""}",,6687,,,,737971,,,,survey-text,
48,,,,,,,,,,,"{""Q0"":""What I learned was to look at the end of the path and find which one would end with the most rather than focusing on the front.""}",,20357,,,,441125,,,,survey-text,
48,,,,,,,,,,,"{""Q0"":""29"",""Q1"":""Male""}",,5205,,,,804816,,,,survey-text,
30,,,,,,,,,,,"{""Q0"":""I learned that I should inspect less and go based on luck""}",,9608,,,,304597,,,,survey-text,
30,,,,,,,,,,,"{""Q0"":""22"",""Q1"":""male""}",,5397,,,,534950,,,,survey-text,
42,,,,,,,,,,,"{""Q0"":""Making sure to click on the nodes in the correct order.""}",,12561,,,,279627,,,,survey-text,
42,,,,,,,,,,,"{""Q0"":""33"",""Q1"":""Female""}",,9727,,,,794603,,,,survey-text,
38,,,,,,,,,,,"{""Q0"":""I learned to minimize my use of the inspector.""}",,18977,,,,186210,,,,survey-text,
38,,,,,,,,,,,"{""Q0"":""36"",""Q1"":""Female""}",,7288,,,,413324,,,,survey-text,
43,,,,,,,,,,,"{""Q0"":""I have learned to minimize the amount of revealing $1 clicks. And when a max is reached on the exterior web, do not click the other option, it's a waste of $1""}",,55686,,,,263174,,,,survey-text,
43,,,,,,,,,,,"{""Q0"":""34"",""Q1"":""Male""}",,4430,,,,497902,,,,survey-text,
29,,,,,,,,,,,"{""Q0"":""I've learned to try and explore nodes to get the best value""}",,12339,,,,221839,,,,survey-text,
29,,,,,,,,,,,"{""Q0"":""30"",""Q1"":""male""}",,5079,,,,464219,,,,survey-text,
17,,,,,,,,,,,"{""Q0"":""At first I clicked a single node and gauged that as to whether I wanted to go there or not.  But I'm thinking now, it may be in my best interest just to pick a random direction and hope for the best.""}",,27240,,,,189041,,,,survey-text,
17,,,,,,,,,,,"{""Q0"":""33"",""Q1"":""male""}",,3886,,,,406916,,,,survey-text,
13,,,,,,,,,,,"{""Q0"":""I learned that I should check more nodes.""}",,26824,,,,498815,,,,survey-text,
13,,,,,,,,,,,"{""Q0"":""59"",""Q1"":""male""}",,12610,,,,824343,,,,survey-text,
8,,,,,,,,,,,"{""Q0"":""I haven't figured it out.""}",,10316,,,,233987,,,,survey-text,
8,,,,,,,,,,,"{""Q0"":""33"",""Q1"":""female""}",,6015,,,,725615,,,,survey-text,
3,,,,,,,,,,,"{""Q0"":""it was confusing why I HAD to inspect certain nodes but I think I understand now after the practice""}",,19349,,,,272261,,,,survey-text,
3,,,,,,,,,,,"{""Q0"":""32"",""Q1"":""female""}",,7561,,,,529093,,,,survey-text,
65,,,,,,,,,,,"{""Q0"":""I'm trying to be more methodical about what I ask to see. If I find a path that is all positive, I should go that way.""}",,39992,,,,464568,,,,survey-text,
65,,,,,,,,,,,"{""Q0"":""41"",""Q1"":""female""}",,5151,,,,700810,,,,survey-text,
16,,,,,,,,,,,"{""Q0"":""It's a balance of finding a good route versus spending with the node finder""}",,41398,,,,333678,,,,survey-text,
16,,,,,,,,,,,"{""Q0"":""44"",""Q1"":""male""}",,12070,,,,686827,,,,survey-text,
61,,,,,,,,,,,"{""Q0"":""Click the first three closest (or at least until I find a +10) then check the other paths. When it's actual money, I might gamble choices more because $1 per check can add up.""}",,85249,,,,346391,,,,survey-text,
61,,,,,,,,,,,"{""Q0"":""29"",""Q1"":""male""}",,9194,,,,680974,,,,survey-text,
32,,,,,,,,,,,"{""Q0"":""I have learned how to properly go about finding the optimal route, while using the least amount of money. I am checking both of the end nodes now, compared to before. ""}",,46435,,,,337757,,,,survey-text,
32,,,,,,,,,,,"{""Q0"":""22"",""Q1"":""Male""}",,5971,,,,586693,,,,survey-text,
56,,,,,,,,,,,"{""Q0"":""I learned that either way you go you can make money or not. I am doing nothing different, just going either way with my gut feeling to see if I can make some money or a bonus. ""}",,81008,,,,561727,,,,survey-text,
56,,,,,,,,,,,"{""Q0"":""50"",""Q1"":""female""}",,24068,,,,871553,,,,survey-text,
36,,,,,,,,,,,"{""Q0"":""nothing""}",,11834,,,,268367,,,,survey-text,
36,,,,,,,,,,,"{""Q0"":""40"",""Q1"":""male""}",,36980,,,,545623,,,,survey-text,
28,,,,,,,,,,,"{""Q0"":""To inspect more nodes before moving.""}",,17296,,,,303364,,,,survey-text,
28,,,,,,,,,,,"{""Q0"":""33"",""Q1"":""Male""}",,10253,,,,565582,,,,survey-text,
55,,,,,,,,,,,"{""Q0"":""At the start, I didn't check the nodes. Then I would click the closest to the middle node. If it turned green I would try the next one. If the next one was red I would try a different side. If 2 were green I would try the final node and if it made me positive I would go that way even if the 3rd one was red (usually 5).""}",,103808,,,,440824,,,,survey-text,
55,,,,,,,,,,,"{""Q0"":""28"",""Q1"":""Male""}",,8201,,,,835931,,,,survey-text,
31,,,,,,,,,,,"{""Q0"":""I don't select as many of the nodes to see what they are worth before I start moving since I only need to know so many before making my decision and I can save the $1 viewing fees.""}",,199292,,,,682896,,,,survey-text,
31,,,,,,,,,,,"{""Q0"":""35"",""Q1"":""Male""}",,9573,,,,1055734,,,,survey-text,
62,,,,,,,,,,,"{""Q0"":""I am inspecting fewer nodes""}",,22640,,,,411966,,,,survey-text,
62,,,,,,,,,,,"{""Q0"":""36"",""Q1"":""female""}",,10124,,,,719058,,,,survey-text,
19,,,,,,,,,,,"{""Q0"":""Try to inspect more nodes before deciding. ""}",,17853,,,,327584,,,,survey-text,
19,,,,,,,,,,,"{""Q0"":""35"",""Q1"":""male""}",,8262,,,,563778,,,,survey-text,
33,,,,,,,,,,,"{""Q0"":""Using node inspector less - going in a direction of initial positive payout.""}",,78414,,,,479162,,,,survey-text,
33,,,,,,,,,,,"{""Q0"":""60"",""Q1"":""Male""}",,31339,,,,814601,,,,survey-text,
5,,,,,,,,,,,"{""Q0"":""Click less, try to find greens and go with them.""}",,30814,,,,454668,,,,survey-text,
35,,,,,,,,,,,"{""Q0"":""I was thinking more long term now than I was at the beginning. Thinking about future nodes.""}",,19990,,,,392231,,,,survey-text,
35,,,,,,,,,,,"{""Q0"":""28"",""Q1"":""female""}",,6476,,,,676667,,,,survey-text,
63,,,,,,,,,,,"{""Q0"":""I am choosing my path more from the initial buying of the first move.""}",,64292,,,,548044,,,,survey-text,
63,,,,,,,,,,,"{""Q0"":""56"",""Q1"":""male""}",,19593,,,,882890,,,,survey-text,
40,,,,,,,,,,,"{""Q0"":""I learned that no matter what I do, that it will always be a choice of getting it wrong. I feel that knowing where to start doesn't mean you will get your way in the end. I follow what had a positive and guessed from there""}",,51074,,,,392295,,,,survey-text,
40,,,,,,,,,,,"{""Q0"":""38"",""Q1"":""Female""}",,6057,,,,775055,,,,survey-text,
15,,,,,,,,,,,"{""Q0"":""look at all the options. I probably shouldn't though. It cost to much.""}",,24533,,,,252313,,,,survey-text,
15,,,,,,,,,,,"{""Q0"":""22"",""Q1"":""Female""}",,10011,,,,516028,,,,survey-text,
45,,,,,,,,,,,"{""Q0"":""i just went to the left""}",,114778,,,,622428,,,,survey-text,
45,,,,,,,,,,,"{""Q0"":""47"",""Q1"":""female""}",,14139,,,,1361368,,,,survey-text,
0,,,,,,,,,,,"{""Q0"":""the middle nodes matter the most i think""}",,18411,,,,255947,,,,survey-text,
0,,,,,,,,,,,"{""Q0"":""26"",""Q1"":""male""}",,10710,,,,545670,,,,survey-text,
64,,,,,,,,,,,"{""Q0"":""Learning what the potential outcomes could be and adjusting where I moved.""}",,28377,,,,338765,,,,survey-text,
64,,,,,,,,,,,"{""Q0"":""23"",""Q1"":""Male""}",,6690,,,,626538,,,,survey-text,
51,,,,,,,,,,,"{""Q0"":""I tried to use the best strategy to figure out which balls I should use $1 to find out, and choose the path to make the most money.""}",,53386,,,,714983,,,,survey-text,
51,,,,,,,,,,,"{""Q0"":""30"",""Q1"":""Male""}",,25334,,,,1012692,,,,survey-text,
27,,,,,,,,,,,"{""Q0"":""Admittedly I'm not pushing for the absolute max, but my general method was to check all three of the points connected to my starting point and the points after each of those.  Then I would check the last points in the direction that was looking the best so far and go with whatever turned out best.  Occasionally it was too close or generally seemed negative and I would check other points, and if one of the first points I revealed was a +10 I would normally continue checking that branch first in case it was all positive and would be the clear choice.""}",,181642,,,,464791,,,,survey-text,
27,,,,,,,,,,,"{""Q0"":""28"",""Q1"":""Male""}",,5942,,,,710030,,,,survey-text,
39,,,,,,,,,,,"{""Q0"":""I learned how to play the game and click on the areas at the beginning to choose a suitable path to take, usually taking a positive green number or a minimally negative number such as -5.""}",,46827,,,,418459,,,,survey-text,
39,,,,,,,,,,,"{""Q0"":""29"",""Q1"":""Male""}",,4249,,,,672249,,,,survey-text,
46,,,,,,,,,,,"{""Q0"":""Checking nodes more.""}",,11014,,,,406535,,,,survey-text,
46,,,,,,,,,,,"{""Q0"":""27"",""Q1"":""Male""}",,11058,,,,691300,,,,survey-text,
