pid,action_times,actions,block,correct,delays,key_press,path,prs,queries,questions,responses,rewards,rt,score,simulation_mode,state_rewards,time_elapsed,trial_index,trial_time,trial_id,trial_type,view_history
55,,,,,,,,,,,"{""Q0"":""I've learned to check enough nodes in order to maximize the chances of selecting the best route. Toward the end, I have learned to continue checking nodes until I find the better one and to skip over checking nodes if the previous node have a +10 value.""}",,225081,,,,512165,,,,survey-text,
55,,,,,,,,,,,"{""Q0"":""31"",""Q1"":""Male""}",,5833,,,,792277,,,,survey-text,
0,,,,,,,,,,,"{""Q0"":""Which nodes to click on""}",,17169,,,,426355,,,,survey-text,
13,,,,,,,,,,,"{""Q0"":""Nothing. I didn't know if I should try the node inspecter or not. I feel like I should have done that. It felt like a trap.""}",,55184,,,,324548,,,,survey-text,
13,,,,,,,,,,,"{""Q0"":""28"",""Q1"":""Female""}",,7390,,,,729298,,,,survey-text,
14,,,,,,,,,,,"{""Q0"":""I'm thinking that if I take the same route every time I might increase my chances but that would be boring so I'll probably move a different way each game. Amazon turk has been slow this week so I hope I earn a bonus. ""}",,72317,,,,379109,,,,survey-text,
14,,,,,,,,,,,"{""Q0"":""55"",""Q1"":""female""}",,9761,,,,640402,,,,survey-text,
35,,,,,,,,,,,"{""Q0"":""I have learned to use my $1 node choice carefully.""}",,40005,,,,639587,,,,survey-text,
35,,,,,,,,,,,"{""Q0"":""53"",""Q1"":""Female""}",,10199,,,,905758,,,,survey-text,
33,,,,,,,,,,,"{""Q0"":""I am trying to look for positive amounts and go the right path.""}",,35858,,,,229860,,,,survey-text,
33,,,,,,,,,,,"{""Q0"":""30"",""Q1"":""female""}",,10054,,,,465362,,,,survey-text,
63,,,,,,,,,,,"{""Q0"":"" it is very hard to know it ""}",,18934,,,,845850,,,,survey-text,
63,,,,,,,,,,,"{""Q0"":""45"",""Q1"":""male""}",,16978,,,,1126084,,,,survey-text,
83,,,,,,,,,,,"{""Q0"":""wait that was training, ugh. I was mostly confused why it kept making me wait, I had no way to plan strategy since it kept distracting me.""}",,45072,,,,411997,,,,survey-text,
83,,,,,,,,,,,"{""Q0"":""30"",""Q1"":""male""}",,13337,,,,705994,,,,survey-text,
77,,,,,,,,,,,"{""Q0"":""I have noticed certain patterns where I lose more money. I should definitely be using the node inspector sparingly if I wish to do well in this game.""}",,33777,,,,369642,,,,survey-text,
77,,,,,,,,,,,"{""Q0"":""40"",""Q1"":""male""}",,7299,,,,617510,,,,survey-text,
76,,,,,,,,,,,"{""Q0"":""It seems that more initial clicks have been better for me, so I will click more before moving""}",,84225,,,,435364,,,,survey-text,
76,,,,,,,,,,,"{""Q0"":""49"",""Q1"":""female""}",,12362,,,,829197,,,,survey-text,
47,,,,,,,,,,,"{""Q0"":""I am just going with my gut feelings on this.""}",,12056,,,,431055,,,,survey-text,
47,,,,,,,,,,,"{""Q0"":""36"",""Q1"":""male""}",,7230,,,,676668,,,,survey-text,
30,,,,,,,,,,,"{""Q0"":""I should examine the adjacent nodes until I find a positive number. Then I should check the nodes nex to that one to find a pattern that will lead to a high amount. If I don't see a good pattern then check some other nodes.""}",,87759,,,,414953,,,,survey-text,
30,,,,,,,,,,,"{""Q0"":""32"",""Q1"":""Male""}",,13923,,,,720549,,,,survey-text,
39,,,,,,,,,,,"{""Q0"":""I learned that I should inspect less and go based on luck""}",,9608,,,,304597,,,,survey-text,
39,,,,,,,,,,,"{""Q0"":""22"",""Q1"":""male""}",,5397,,,,534950,,,,survey-text,
38,,,,,,,,,,,"{""Q0"":""I've learned to try and explore nodes to get the best value""}",,12339,,,,221839,,,,survey-text,
38,,,,,,,,,,,"{""Q0"":""30"",""Q1"":""male""}",,5079,,,,464219,,,,survey-text,
49,,,,,,,,,,,"{""Q0"":""I learned to minimize my use of the inspector.""}",,18977,,,,186210,,,,survey-text,
49,,,,,,,,,,,"{""Q0"":""36"",""Q1"":""Female""}",,7288,,,,413324,,,,survey-text,
4,,,,,,,,,,,"{""Q0"":""it was confusing why I HAD to inspect certain nodes but I think I understand now after the practice""}",,19349,,,,272261,,,,survey-text,
4,,,,,,,,,,,"{""Q0"":""32"",""Q1"":""female""}",,7561,,,,529093,,,,survey-text,
90,,,,,,,,,,,"{""Q0"":""I'm trying to be more methodical about what I ask to see. If I find a path that is all positive, I should go that way.""}",,39992,,,,464568,,,,survey-text,
90,,,,,,,,,,,"{""Q0"":""41"",""Q1"":""female""}",,5151,,,,700810,,,,survey-text,
29,,,,,,,,,,,"{""Q0"":""It's a balance of finding a good route versus spending with the node finder""}",,41398,,,,333678,,,,survey-text,
29,,,,,,,,,,,"{""Q0"":""44"",""Q1"":""male""}",,12070,,,,686827,,,,survey-text,
85,,,,,,,,,,,"{""Q0"":""Click the first three closest (or at least until I find a +10) then check the other paths. When it's actual money, I might gamble choices more because $1 per check can add up.""}",,85249,,,,346391,,,,survey-text,
85,,,,,,,,,,,"{""Q0"":""29"",""Q1"":""male""}",,9194,,,,680974,,,,survey-text,
41,,,,,,,,,,,"{""Q0"":""I have learned how to properly go about finding the optimal route, while using the least amount of money. I am checking both of the end nodes now, compared to before. ""}",,46435,,,,337757,,,,survey-text,
41,,,,,,,,,,,"{""Q0"":""22"",""Q1"":""Male""}",,5971,,,,586693,,,,survey-text,
80,,,,,,,,,,,"{""Q0"":""I learned that either way you go you can make money or not. I am doing nothing different, just going either way with my gut feeling to see if I can make some money or a bonus. ""}",,81008,,,,561727,,,,survey-text,
80,,,,,,,,,,,"{""Q0"":""50"",""Q1"":""female""}",,24068,,,,871553,,,,survey-text,
37,,,,,,,,,,,"{""Q0"":""To inspect more nodes before moving.""}",,17296,,,,303364,,,,survey-text,
37,,,,,,,,,,,"{""Q0"":""33"",""Q1"":""Male""}",,10253,,,,565582,,,,survey-text,
78,,,,,,,,,,,"{""Q0"":""At the start, I didn't check the nodes. Then I would click the closest to the middle node. If it turned green I would try the next one. If the next one was red I would try a different side. If 2 were green I would try the final node and if it made me positive I would go that way even if the 3rd one was red (usually 5).""}",,103808,,,,440824,,,,survey-text,
78,,,,,,,,,,,"{""Q0"":""28"",""Q1"":""Male""}",,8201,,,,835931,,,,survey-text,
40,,,,,,,,,,,"{""Q0"":""I don't select as many of the nodes to see what they are worth before I start moving since I only need to know so many before making my decision and I can save the $1 viewing fees.""}",,199292,,,,682896,,,,survey-text,
40,,,,,,,,,,,"{""Q0"":""35"",""Q1"":""Male""}",,9573,,,,1055734,,,,survey-text,
32,,,,,,,,,,,"{""Q0"":""Try to inspect more nodes before deciding. ""}",,17853,,,,327584,,,,survey-text,
32,,,,,,,,,,,"{""Q0"":""35"",""Q1"":""male""}",,8262,,,,563778,,,,survey-text,
42,,,,,,,,,,,"{""Q0"":""Using node inspector less - going in a direction of initial positive payout.""}",,78414,,,,479162,,,,survey-text,
42,,,,,,,,,,,"{""Q0"":""60"",""Q1"":""Male""}",,31339,,,,814601,,,,survey-text,
12,,,,,,,,,,,"{""Q0"":""Click less, try to find greens and go with them.""}",,30814,,,,454668,,,,survey-text,
88,,,,,,,,,,,"{""Q0"":""I am choosing my path more from the initial buying of the first move.""}",,64292,,,,548044,,,,survey-text,
88,,,,,,,,,,,"{""Q0"":""56"",""Q1"":""male""}",,19593,,,,882890,,,,survey-text,
53,,,,,,,,,,,"{""Q0"":""I learned that no matter what I do, that it will always be a choice of getting it wrong. I feel that knowing where to start doesn't mean you will get your way in the end. I follow what had a positive and guessed from there""}",,51074,,,,392295,,,,survey-text,
53,,,,,,,,,,,"{""Q0"":""38"",""Q1"":""Female""}",,6057,,,,775055,,,,survey-text,
27,,,,,,,,,,,"{""Q0"":""look at all the options. I probably shouldn't though. It cost to much.""}",,24533,,,,252313,,,,survey-text,
27,,,,,,,,,,,"{""Q0"":""22"",""Q1"":""Female""}",,10011,,,,516028,,,,survey-text,
56,,,,,,,,,,,"{""Q0"":""i just went to the left""}",,114778,,,,622428,,,,survey-text,
56,,,,,,,,,,,"{""Q0"":""47"",""Q1"":""female""}",,14139,,,,1361368,,,,survey-text,
89,,,,,,,,,,,"{""Q0"":""Learning what the potential outcomes could be and adjusting where I moved.""}",,28377,,,,338765,,,,survey-text,
89,,,,,,,,,,,"{""Q0"":""23"",""Q1"":""Male""}",,6690,,,,626538,,,,survey-text,
70,,,,,,,,,,,"{""Q0"":""I tried to use the best strategy to figure out which balls I should use $1 to find out, and choose the path to make the most money.""}",,53386,,,,714983,,,,survey-text,
70,,,,,,,,,,,"{""Q0"":""30"",""Q1"":""Male""}",,25334,,,,1012692,,,,survey-text,
57,,,,,,,,,,,"{""Q0"":""Checking nodes more.""}",,11014,,,,406535,,,,survey-text,
57,,,,,,,,,,,"{""Q0"":""27"",""Q1"":""Male""}",,11058,,,,691300,,,,survey-text,
11,,,,,,,,,,,"{""Q0"":""I learned to explore the value of more nodes to get more money.""}",,20592,,,,298676,,,,survey-text,
11,,,,,,,,,,,"{""Q0"":""48"",""Q1"":""female""}",,8287,,,,563278,,,,survey-text,
71,,,,,,,,,,,"{""Q0"":""nothing""}",,15768,,,,816481,,,,survey-text,
71,,,,,,,,,,,"{""Q0"":""45"",""Q1"":""Male""}",,17485,,,,1155529,,,,survey-text,
61,,,,,,,,,,,"{""Q0"":""I'm clicking on more nodes than at the beginning.""}",,35817,,,,256405,,,,survey-text,
61,,,,,,,,,,,"{""Q0"":""51"",""Q1"":""Male""}",,9307,,,,590333,,,,survey-text,
74,,,,,,,,,,,"{""Q0"":""I learned that if you see a node with a positive amount follow inspect that route first before doing others.""}",,43351,,,,784086,,,,survey-text,
74,,,,,,,,,,,"{""Q0"":""28"",""Q1"":""male""}",,8767,,,,1113700,,,,survey-text,
60,,,,,,,,,,,"{""Q0"":""Once finding a node that had the money I started inspecting the other nodes in that same column instead of looking at the other nodes. Also to inspect the last 2 nodes to see the best place to finish once I started moving.  ""}",,96294,,,,398860,,,,survey-text,
60,,,,,,,,,,,"{""Q0"":""36"",""Q1"":""female ""}",,12138,,,,651472,,,,survey-text,
21,,,,,,,,,,,"{""Q0"":""I primarily make my decision on clicking the closest two nodes in each direction instead of inspecting every node and wasting money.""}",,38286,,,,503091,,,,survey-text,
21,,,,,,,,,,,"{""Q0"":""23"",""Q1"":""male""}",,9089,,,,761369,,,,survey-text,
64,,,,,,,,,,,"{""Q0"":"". I tried to click the least amount of circles as possible just finding a reasonable amount of profit per round without having to click a whole bunch. Didn't work great though. ""}",,46066,,,,587727,,,,survey-text,
64,,,,,,,,,,,"{""Q0"":""32"",""Q1"":""One of the two genders that exist: Male. ""}",,13323,,,,1005525,,,,survey-text,
18,,,,,,,,,,,"{""Q0"":""I guess I learned to click on one of the nearest nodes first and if it's a positive number to continue clicking down that path. If it's negative then move on to one of the other near nodes. If it's a positive 10 to start then it only wants me to click on one of the two last nodes in the path. At the beginning I didn't have a particular place to start checking.""}",,155320,,,,592142,,,,survey-text,
18,,,,,,,,,,,"{""Q0"":""40"",""Q1"":""female""}",,7363,,,,957035,,,,survey-text,
75,,,,,,,,,,,"{""Q0"":""Nothing i am doing the strategy i came up with when i first saw the web.""}",,92732,,,,366151,,,,survey-text,
75,,,,,,,,,,,"{""Q0"":""21"",""Q1"":""Male""}",,9046,,,,586230,,,,survey-text,
19,,,,,,,,,,,"{""Q0"":""I learned that I should reveal nodes in the most efficient way possible. I am trying to reveal profitable paths with minimum reveals. ""}",,222424,,,,748435,,,,survey-text,
19,,,,,,,,,,,"{""Q0"":""22"",""Q1"":""Male""}",,7561,,,,1072818,,,,survey-text,
24,,,,,,,,,,,"{""Q0"":""This game is automated to make the player loose""}",,29322,,,,500265,,,,survey-text,
24,,,,,,,,,,,"{""Q0"":""35"",""Q1"":""male""}",,7927,,,,760678,,,,survey-text,
45,,,,,,,,,,,"{""Q0"":""I learnt that it is entirely based on luck so I don't bother wasting $ on node revealing sometimes""}",,199841,,,,601298,,,,survey-text,
45,,,,,,,,,,,"{""Q0"":""27"",""Q1"":""Male""}",,12182,,,,908577,,,,survey-text,
25,,,,,,,,,,,"{""Q0"":""Learned how many to click and where""}",,26523,,,,302144,,,,survey-text,
25,,,,,,,,,,,"{""Q0"":""36"",""Q1"":""m""}",,8221,,,,595935,,,,survey-text,
72,,,,,,,,,,,"{""Q0"":""I am still using the same method from the beginning""}",,28733,,,,285578,,,,survey-text,
72,,,,,,,,,,,"{""Q0"":""21"",""Q1"":""Male""}",,4567,,,,516578,,,,survey-text,
46,,,,,,,,,,,"{""Q0"":""Click through when you find positive flow to see where to end up.""}",,17131,,,,302056,,,,survey-text,
46,,,,,,,,,,,"{""Q0"":""39"",""Q1"":""Male""}",,7287,,,,552559,,,,survey-text,
68,,,,,,,,,,,"{""Q0"":""I ensured a pick a direction with a more rewarding node""}",,31547,,,,2535051,,,,survey-text,
68,,,,,,,,,,,"{""Q0"":""58"",""Q1"":""Male""}",,7742,,,,2916036,,,,survey-text,
66,,,,,,,,,,,"{""Q0"":""I have learned that each round is different""}",,17176,,,,221098,,,,survey-text,
66,,,,,,,,,,,"{""Q0"":""29"",""Q1"":""female""}",,8248,,,,462803,,,,survey-text,
10,,,,,,,,,,,"{""Q0"":""thanks""}",,5252,,,,432758,,,,survey-text,
10,,,,,,,,,,,"{""Q0"":""33"",""Q1"":""female""}",,6858,,,,1037253,,,,survey-text,
17,,,,,,,,,,,"{""Q0"":""guessing- did not change strategy""}",,23860,,,,427834,,,,survey-text,
17,,,,,,,,,,,"{""Q0"":""50"",""Q1"":""female""}",,11203,,,,703639,,,,survey-text,
65,,,,,,,,,,,"{""Q0"":""I experimented and found it best to spend more up front before moving.""}",,32681,,,,320113,,,,survey-text,
65,,,,,,,,,,,"{""Q0"":""35"",""Q1"":""male""}",,6436,,,,556666,,,,survey-text,
23,,,,,,,,,,,"{""Q0"":""I would spend the one dollar more often""}",,10380,,,,203410,,,,survey-text,
23,,,,,,,,,,,"{""Q0"":""32"",""Q1"":""male""}",,8231,,,,471362,,,,survey-text,
48,,,,,,,,,,,"{""Q0"":""I am trying to better plan ahead/ ""}",,17082,,,,383235,,,,survey-text,
48,,,,,,,,,,,"{""Q0"":""47"",""Q1"":""Male""}",,8176,,,,687981,,,,survey-text,
20,,,,,,,,,,,"{""Q0"":""I've learned how to use the node inspector.""}",,30685,,,,302643,,,,survey-text,
20,,,,,,,,,,,"{""Q0"":""45"",""Q1"":""male""}",,11952,,,,601667,,,,survey-text,
54,,,,,,,,,,,"{""Q0"":""I feel like it constantly wanted me to click on various nodes even though I really didn't want to because I didn't want to spend the $1 so many times. I hated the big \""you should have\"" message every time, but I started clicking on more nodes.""}",,44263,,,,445379,,,,survey-text,
54,,,,,,,,,,,"{""Q0"":""56"",""Q1"":""female""}",,7102,,,,683256,,,,survey-text,
73,,,,,,,,,,,"{""Q0"":""I am clicking on the nodes more straigically.""}",,16149,,,,418146,,,,survey-text,
73,,,,,,,,,,,"{""Q0"":""32"",""Q1"":""Male""}",,7942,,,,771576,,,,survey-text,
82,,,,,,,,,,,"{""Q0"":""If I get two greens in a row, I go in that direction and I don't click on anymore than I have to.""}",,30616,,,,729800,,,,survey-text,
82,,,,,,,,,,,"{""Q0"":""39"",""Q1"":""female""}",,45784,,,,1070070,,,,survey-text,
87,,,,,,,,,,,"{""Q0"":""I only clicked on the areas that I needed to in order to find the best path.  In the beginning I wanted to see most of the nodes in order to plan it out but needed less information later in the session.""}",,46890,,,,233220,,,,survey-text,
87,,,,,,,,,,,"{""Q0"":""24"",""Q1"":""male""}",,14866,,,,742219,,,,survey-text,
84,,,,,,,,,,,"{""Q0"":""I am making sure the path as a whole gives value, basically I'm spending more time to scout than I originally did.""}",,35393,,,,254625,,,,survey-text,
84,,,,,,,,,,,"{""Q0"":""48"",""Q1"":""male""}",,10994,,,,522818,,,,survey-text,
26,,,,,,,,,,,"{""Q0"":""Clicking more""}",,7067,,,,265619,,,,survey-text,
26,,,,,,,,,,,"{""Q0"":""33"",""Q1"":""Male""}",,4100,,,,497776,,,,survey-text,
81,,,,,,,,,,,"{""Q0"":""Using the inspector helps a lot.""}",,14026,,,,324271,,,,survey-text,
81,,,,,,,,,,,"{""Q0"":""30"",""Q1"":""Male""}",,11467,,,,632671,,,,survey-text,
52,,,,,,,,,,,"{""Q0"":""I now see that I shouldn't continue revealing nodes if I already found a negative amount in the path.""}",,46124,,,,424221,,,,survey-text,
52,,,,,,,,,,,"{""Q0"":""28"",""Q1"":""Male""}",,14287,,,,720024,,,,survey-text,
31,,,,,,,,,,,"{""Q0"":""Trying to guess which nodes to click on""}",,21992,,,,351816,,,,survey-text,
31,,,,,,,,,,,"{""Q0"":""44"",""Q1"":""female""}",,9319,,,,612943,,,,survey-text,
59,,,,,,,,,,,"{""Q0"":""I am using more of the node inspectors. ""}",,12196,,,,267731,,,,survey-text,
59,,,,,,,,,,,"{""Q0"":""35"",""Q1"":""Female""}",,9470,,,,535438,,,,survey-text,
43,,,,,,,,,,,"{""Q0"":""Using the check before moving""}",,20648,,,,495283,,,,survey-text,
43,,,,,,,,,,,"{""Q0"":""47"",""Q1"":""Female""}",,12412,,,,841062,,,,survey-text,
36,,,,,,,,,,,"{""Q0"":""I'm just trying to find a clear path to some green, not red numbers. ""}",,24510,,,,502175,,,,survey-text,
36,,,,,,,,,,,"{""Q0"":""41"",""Q1"":""female""}",,12005,,,,851001,,,,survey-text,
7,,,,,,,,,,,"{""Q0"":""I am playing about the same.  I look at one close to me and then try to find another paying one along the same route""}",,37614,,,,332023,,,,survey-text,
7,,,,,,,,,,,"{""Q0"":""39"",""Q1"":""male""}",,6511,,,,596256,,,,survey-text,
28,,,,,,,,,,,"{""Q0"":""Picking and choosing which ones to reveal a bit more often. Although the guide was kind of annoying honestly""}",,28921,,,,243905,,,,survey-text,
28,,,,,,,,,,,"{""Q0"":""42"",""Q1"":""male""}",,7753,,,,476337,,,,survey-text,
15,,,,,,,,,,,"{""Q0"":""I made sure I checked as many nodes as I could to avoid making losses.""}",,32514,,,,429995,,,,survey-text,
15,,,,,,,,,,,"{""Q0"":""24"",""Q1"":""Female""}",,7920,,,,784735,,,,survey-text,
51,,,,,,,,,,,"{""Q0"":""Im no longer clicking the entire web since many webs have no good paths. ""}",,15019,,,,195287,,,,survey-text,
51,,,,,,,,,,,"{""Q0"":""28"",""Q1"":""Male""}",,5735,,,,414716,,,,survey-text,
58,,,,,,,,,,,"{""Q0"":""I didn't understand that I could click on multiple nodes each round.""}",,38670,,,,484316,,,,survey-text,
58,,,,,,,,,,,"{""Q0"":""44"",""Q1"":""female""}",,6830,,,,765827,,,,survey-text,
62,,,,,,,,,,,"{""Q0"":""I learned that you have to take risks and nothing is for sure. ""}",,15064,,,,270472,,,,survey-text,
62,,,,,,,,,,,"{""Q0"":""26"",""Q1"":""Male""}",,11541,,,,608059,,,,survey-text,
79,,,,,,,,,,,"{""Q0"":""If I clicked a positive node, I'd just go to the end nodes to see their value instead of clicking the middle one. I was confused by the message\"" you should have clicked one of these nodes\"" because I thought I could click as few as I liked. I tried to jump to a positive outcome without picking too many unnecessary nodes.""}",,96547,,,,474455,,,,survey-text,
79,,,,,,,,,,,"{""Q0"":""41"",""Q1"":""female""}",,7989,,,,775573,,,,survey-text,
34,,,,,,,,,,,"{""Q0"":""I learned to try to find the ten first.""}",,18199,,,,378749,,,,survey-text,
34,,,,,,,,,,,"{""Q0"":""36"",""Q1"":""female""}",,10573,,,,669208,,,,survey-text,
50,,,,,,,,,,,"{""Q0"":""I tried to only press the ones that were profitable from the 2nd node and then only checked that branch instead of every single node.""}",,60818,,,,239222,,,,survey-text,
50,,,,,,,,,,,"{""Q0"":""26"",""Q1"":""male""}",,6358,,,,501346,,,,survey-text,
67,,,,,,,,,,,"{""Q0"":""I would say you have to accept the positives once you see them and not keep searching for the absolute maximum return.""}",,68495,,,,382726,,,,survey-text,
67,,,,,,,,,,,"{""Q0"":""48"",""Q1"":""Male""}",,153948,,,,1013764,,,,survey-text,
22,,,,,,,,,,,"{""Q0"":""I'm starting at the end of the web and moving backward. If I get two positive numbers I'm going with that path.""}",,26291,,,,253795,,,,survey-text,
22,,,,,,,,,,,"{""Q0"":""33"",""Q1"":""Male""}",,18143,,,,549972,,,,survey-text,
3,,,,,,,,,,,"{""Q0"":""checking more nodes""}",,11586,,,,355028,,,,survey-text,
3,,,,,,,,,,,"{""Q0"":""56"",""Q1"":""female""}",,9303,,,,622471,,,,survey-text,
8,,,,,,,,,,,"{""Q0"":""finding the 10s first and following the path""}",,14938,,,,359564,,,,survey-text,
8,,,,,,,,,,,"{""Q0"":""34"",""Q1"":""male""}",,13172,,,,659079,,,,survey-text,
5,,,,,,,,,,,"{""Q0"":""At first I tried to use minimal node checks, but I think node checks are important now as the paths can be misleading. However, too many node checks and not a successful path is detrimental.""}",,29776,,,,205311,,,,survey-text,
5,,,,,,,,,,,"{""Q0"":""30"",""Q1"":""male""}",,3987,,,,467386,,,,survey-text,
86,,,,,,,,,,,"{""Q0"":""Check multiple spots""}",,10001,,,,342103,,,,survey-text,
86,,,,,,,,,,,"{""Q0"":""24"",""Q1"":""female""}",,5478,,,,659443,,,,survey-text,
2,,,,,,,,,,,"{""Q0"":""I feel like there should be a pattern but I can't find it. So far I have learned nothing.""}",,108160,,,,621877,,,,survey-text,
2,,,,,,,,,,,"{""Q0"":""41"",""Q1"":""Female""}",,12156,,,,1091152,,,,survey-text,
