wid,time_elapsed,button_pressed,trial_type,stimulus,rt,view_history,responses,correct,questions,trial_time,simulation_mode,trial_id,rewards,block,delays,actions,path,trial_index,state_rewards,queries,score,prs,action_times,key_press
w61f58b5,438732,,survey-text,,124724,,"{""Q0"":""Look at where you will be and what lies there instead of the path you will take to get there."",""Q1"":""I would choose the one with interest rates for the first month. ""}",,,,,,,,,,,,,,,,,
w61f58b5,539939,,survey-text,,100191,,"{""Q0"":""Look at where you will be and what you will have made up instead of the cost that it took you to get there/the path you took to get there."",""Q1"":""Don't be too scared to try something because it might just be better in the end despite how rough it looks to get there."",""Q2"":""The path and reward.""}",,,,,,,,,,,,,,,,,
w61f58b5,573827,,survey-text,,21672,,"{""Q0"":""No, it was very simple to understand."",""Q1"":""Love the survey. Keep it up!""}",,,,,,,,,,,,,,,,,
w6676851,820375,,survey-text,,166330,,"{""Q0"":""Clicking on the final destinations rather than the stops leading to them saves a few dollars."",""Q1"":""I would look at the final destination (the next 19 years) and then choose the path that got me there with the least expense.""}",,,,,,,,,,,,,,,,,
w6676851,1168714,,survey-text,,347271,,"{""Q0"":""It may cost a little to start, but you can minimize the initial investment and still choose a path that will get you to your desired destination."",""Q1"":""If I decide to go back to school I can use this strategy to plan out the cost in dollars and in time so that I can realistically go to school and still manage the financial and practical (day to day activities) I need to continue to do at the same time."",""Q2"":""I'd need to look at the financial and time investments I'd need to make, and that would involve some investment in time, and money if I wanted to get professional counseling to help me plan.  The middle path would be the investment of time and money that it takes to go to school.  The long term investment - the destination - would be the degree I earned.""}",,,,,,,,,,,,,,,,,
w6676851,1259341,,survey-text,,75255,,"{""Q0"":""No, it was all laid out very clearly."",""Q1"":""This was really interesting, and it seems practical too.  Thanks for the opportunity to participate!""}",,,,,,,,,,,,,,,,,
w481d889,672593,,survey-text,,140092,,"{""Q0"":""Look for the destination that is $48.  Stop checking destination when you find that value.  Don't choose the same destination as the previous round."",""Q1"":""I would choose the loan that has the best rate for the next 19 years and make a path towards it.""}",,,,,,,,,,,,,,,,,
w481d889,758981,,survey-text,,85349,,"{""Q0"":""Aim toward long term goals and don't worry as much about the short term."",""Q1"":""Investing"",""Q2"":""Focusing on long term gains as opposed to short term losses.""}",,,,,,,,,,,,,,,,,
w481d889,784660,,survey-text,,7252,,"{""Q0"":""no"",""Q1"":""no""}",,,,,,,,,,,,,,,,,
w79f70f3,466465,,survey-text,,121563,,"{""Q0"":""Click at the end points to see how much the long term commitment would benefit me."",""Q1"":""Look at the interest rate for the long term (next 19 months) and calculate which one would cost the least amount in the long run.""}",,,,,,,,,,,,,,,,,
w79f70f3,612277,,survey-text,,144806,,"{""Q0"":""Always plan for the long term even though there will be short term and mid term pitfalls and consequences its always for the greater good."",""Q1"":""I think a good example would be going to college.  In the short and mid term there will be a lot of downfalls because of all the student loans and lack of a social life but getting a good education will result in getting a better paying job and being well off in the future."",""Q2"":""My end goal was to make money in a career that will always be around (healthcare) so in order to achieve the job I have to take some losses and owe some debt in order to get the right education.""}",,,,,,,,,,,,,,,,,
w79f70f3,666061,,survey-text,,44089,,"{""Q0"":""No, everything was very clear and concise."",""Q1"":""No, it was a fun game.""}",,,,,,,,,,,,,,,,,
w94555d2,299407,,survey-text,,115491,,"{""Q0"":""I tried to click on the destinations only. I was willing to spend a little to learn the most profitable ending. I was willing to take small losses to reach the end goal of a large profit."",""Q1"":""I would have to consider the amount of the rates, my income, and my future plans. Probably the latter one as it is likely I will be paying on a mortgage for a long period of time.""}",,,,,,,,,,,,,,,,,
w94555d2,425410,,survey-text,,124987,,"{""Q0"":""Sometimes you may have to make small sacrifices for the larger gain. Something that seems slightly negative now may pay off in the end,"",""Q1"":""In a job. You may start out at an entry level with lower pay and menial tasks. But if you look at the destination and consider the steps along the way, it could turn out great at the end."",""Q2"":""You may face small, negative things along the way. However, there could be a big pay off at the end.""}",,,,,,,,,,,,,,,,,
w94555d2,441793,,survey-text,,5495,,"{""Q0"":""No"",""Q1"":""No""}",,,,,,,,,,,,,,,,,
w3d8365b,439708,,survey-text,,65844,,"{""Q0"":""Look at the destinations."",""Q1"":""Which ever has the best end result""}",,,,,,,,,,,,,,,,,
w3d8365b,527149,,survey-text,,86424,,"{""Q0"":""Weigh the final consequences first."",""Q1"":""How much time and resources to spend on a business."",""Q2"":""It's a long game without instant results. There can be bumps on the way.""}",,,,,,,,,,,,,,,,,
w3d8365b,557645,,survey-text,,17609,,"{""Q0"":""I wasn't sure which circles were the destinations initially."",""Q1"":""""}",,,,,,,,,,,,,,,,,
wa616224,360020,,survey-text,,52311,,"{""Q0"":""Find the most profitable end goal and accept the risk of getting there. If i find 48$ at the end, I need to realize my biggest possible loss is -16$."",""Q1"":""Id be looking for the better long term price rather than short term.""}",,,,,,,,,,,,,,,,,
wa616224,406501,,survey-text,,45458,,"{""Q0"":""Think about your end goals in life and accept any losses you might take to get there."",""Q1"":""Using the stock market for investing in your future."",""Q2"":""I might take some losses in time and a stock can go down forever. But with a split portfolio and dividends you can make infinite money over time.""}",,,,,,,,,,,,,,,,,
wa616224,419588,,survey-text,,3187,,"{""Q0"":""No"",""Q1"":""""}",,,,,,,,,,,,,,,,,
w3fd7606,496102,,survey-text,,44617,,"{""Q0"":""look at the final destination first to see which has the largest total outcome"",""Q1"":""i would choose the one that has has the most profit in the longterm""}",,,,,,,,,,,,,,,,,
w3fd7606,576623,,survey-text,,79511,,"{""Q0"":""i would explain how the decisions you make have short and longterm effects that you need to consider"",""Q1"":""when deciding to buy things that might seem useful in the moment but are a waste of money in the long run"",""Q2"":""you have to consider the short and longterm effects""}",,,,,,,,,,,,,,,,,
w3fd7606,594886,,survey-text,,6572,,"{""Q0"":""no"",""Q1"":""no""}",,,,,,,,,,,,,,,,,
wdc20064,192137,,survey-text,,27664,,"{""Q0"":""Stop at the first good zone."",""Q1"":""I would choose the best return on my investment.""}",,,,,,,,,,,,,,,,,
wdc20064,258242,,survey-text,,65087,,"{""Q0"":""plan ahead, choose your route and stick to it."",""Q1"":""I guess everything. With a decision and a plan, we can achieve great things. At work i want a promotion so i've looked at how best i can achieve that."",""Q2"":""Well, i can look ahead and say this is what i want, and take a look at the easiest paths forward.""}",,,,,,,,,,,,,,,,,
wdc20064,268879,,survey-text,,3422,,"{""Q0"":""Nope"",""Q1"":""""}",,,,,,,,,,,,,,,,,
wdc3f276,586918,,survey-text,,42156,,"{""Q0"":""Look at the final destination"",""Q1"":""I'd look at the 19 years""}",,,,,,,,,,,,,,,,,
wdc3f276,633233,,survey-text,,45298,,"{""Q0"":""Plan long term"",""Q1"":""Retiring"",""Q2"":""I should decide where I want to go, now.""}",,,,,,,,,,,,,,,,,
wdc3f276,676450,,survey-text,,32511,,"{""Q0"":""Easy after I got the hang of it."",""Q1"":""That was fun and unique. Thank you!""}",,,,,,,,,,,,,,,,,
w40e3389,432646,,survey-text,,58986,,"{""Q0"":""Check the long term consequences first."",""Q1"":""The best option over 19 years, because you don't always know what happens in the middle. ""}",,,,,,,,,,,,,,,,,
w40e3389,758441,,survey-text,,324790,,"{""Q0"":""Look at the long term goals and choose what little things along the way lead to that goal. You're always moving to the next destination, you control where it is and what you get there. "",""Q1"":""Putting more attention and care into routine and healthcare. I am chronically ill, and many days I don't see a future for myself but I have to remember that what I do today to help my body fuels my tomorrow and DOES add up and heal me over time. I will gain rewards from small investments into my own care and well being. "",""Q2"":""You have to consider what sacrifice you're going to make today to make gains later. You have to check in with possible futures and mid-points and make an educated guess about how it's gone before and how much the overall return will be before you start. You have to look at the whole picture (all 10 rounds) as well, an even bigger total accumulation. ""}",,,,,,,,,,,,,,,,,
w40e3389,957207,,survey-text,,174391,,"{""Q0"":""Nope. "",""Q1"":""Very interesting game/ study and made me really think about my own life and lack of goals and ability to make decisions and plan for the future. It looks and sounds so simple when explained this way. I'm curious if this relates best to money-involved outcomes or could a person write out a tree of life decisions like a pro & con list? Anyway, thank you for the opportunity to participate. Best Wishes. ""}",,,,,,,,,,,,,,,,,
w4af49c9,354446,,survey-text,,46431,,"{""Q0"":""Just worry about the end destinations, as they have the highest potential value."",""Q1"":""The next nineteen.""}",,,,,,,,,,,,,,,,,
w4af49c9,441443,,survey-text,,85973,,"{""Q0"":""Think about the long term."",""Q1"":""I couldn't say. Planning ahead isn't really my cup of tea in life. I suppose spending more on a car that will last longer."",""Q2"":""Because it's more beneficial in the long term.""}",,,,,,,,,,,,,,,,,
w4af49c9,462165,,survey-text,,9479,,"{""Q0"":""Nope."",""Q1"":""No.""}",,,,,,,,,,,,,,,,,
wafa08c4,371482,,survey-text,,68211,,"{""Q0"":""Make a good decision. Sometimes you might land on a spot that is taking money from you but you might end up making a good decision by sticking with it and still doing well."",""Q1"":""Pick whichever one works best for you""}",,,,,,,,,,,,,,,,,
wafa08c4,535478,,survey-text,,162983,,"{""Q0"":""You can make bad decisions and good ones, but ultimately it's your choices. "",""Q1"":""The fact that I don't want kids but my parents think I should want them. It's ultimately my choice and if I choose not to have any, it's my own decision. If I end up regretting it later in life, I made the choice to begin with and have to live with it. But I think it is the right choice for me to not have any. "",""Q2"":""No one can tell you where to go but you. You can lead a horse to somewhere good with water, but it doesn't mean they'll drink it just because you want them to. ""}",,,,,,,,,,,,,,,,,
wafa08c4,554718,,survey-text,,6526,,"{""Q0"":""Nope"",""Q1"":""None""}",,,,,,,,,,,,,,,,,
w00afac0,794064,,survey-text,,167845,,"{""Q0"":""If a -48 was found on one side of the flight path then one could assume that +48 is 2 spots underneath, above, or beside that -48 flight spot."",""Q1"":""I would choose the one with the lowest interest rate over time. I would sit down and do the math first. It is safe to assume that the interest rate over the next 19 years would have the most impact on my financial situation overall.""}",,,,,,,,,,,,,,,,,
w00afac0,1007235,,survey-text,,212148,,"{""Q0"":""A little research of your career path can help you maximize your financial output overtime by minimizing costs. You have to spend a little money to make a lot of money. "",""Q1"":""Investing would be a great example, or even choosing a career path by comparing the costs to the potential moneymaking opportunity."",""Q2"":""Investing is similar to this game, because you have to pay for decent information (a broker). This information allows you to make more money than if one was to fly blindly to what they think will make them the most money. The research has to be done to provide the biggest economic gain.""}",,,,,,,,,,,,,,,,,
w00afac0,1024032,,survey-text,,5522,,"{""Q0"":"""",""Q1"":""""}",,,,,,,,,,,,,,,,,
w6ea1325,904657,,survey-text,,135854,,"{""Q0"":""You can remember where the blue circles were before on the game."",""Q1"":""I'm not 100% sure but I would probably choose the next 19 years.""}",,,,,,,,,,,,,,,,,
w6ea1325,1079673,,survey-text,,174011,,"{""Q0"":""I would tell a friend to lay out all the ideas and things that they want to do in life and make a plan."",""Q1"":""Well this would fit in my life right now with deciding on what he want to do for a new job since he just lost his. He need to make decision by forming a plan."",""Q2"":""It's having a broad list of jobs that my husband have to narrow down on what he want to do and where he want to do it.""}",,,,,,,,,,,,,,,,,
w6ea1325,1106257,,survey-text,,17219,,"{""Q0"":""Not to me."",""Q1"":""I actually liked the game.""}",,,,,,,,,,,,,,,,,
w00a5b64,939899,,survey-text,,333172,,"{""Q0"":""Make a few clicks and guess.  At first, I thought on either route a destination opposite a negative cost would it's positive, only later did I realize that wasn't the case.  The final destination value seems to be the most important factor."",""Q1"":""I would want to know what the interest rate for the next 19 years was, then I'd be interested in what the rates for the 1st month and the rest of the year are.""}",,,,,,,,,,,,,,,,,
w00a5b64,1491821,,survey-text,,550893,,"{""Q0"":""Clicks are only a dollar and the final destination is where you get the maximum benefit, so investigate the final destination in life concern yourself less with the path, although a path and destination that does not cost you is also worthwhile."",""Q1"":""Going to school, the expense was great but the rewards do exist and are in the end greater."",""Q2"":""Clicking the final destinations and paths to know the cost is worth it in the end.  But is if you are lucky and find a destination with a positive return on the first few clicks it might just be worth going to that route.""}",,,,,,,,,,,,,,,,,
w00a5b64,1917985,,survey-text,,409028,,"{""Q0"":""The directions were a little confusing, I understood the basics of the game but didn't know that the final destinations were either +/- 48 or +/- 24 and the intermediate paths were single digits."",""Q1"":""I made a mistake on one route where I press the up arrow but meant to press down.""}",,,,,,,,,,,,,,,,,
wa2fd528,281872,,survey-text,,71764,,"{""Q0"":""I checked the profits of destinations at the edges. Then I checked the path and took the most profitable one."",""Q1"":""I would make calculations for all of them. I would choose an interest rate that I would be able to afford and would be able to maintain my costs.""}",,,,,,,,,,,,,,,,,
wa2fd528,351533,,survey-text,,68613,,"{""Q0"":""You should be aware of consequences and not head in blindly to do something."",""Q1"":""Choosing a job that may look good, but may have a negative environment."",""Q2"":""You need to get a good grasp before committing to the decision. ""}",,,,,,,,,,,,,,,,,
wa2fd528,362253,,survey-text,,4010,,"{""Q0"":""No"",""Q1"":""""}",,,,,,,,,,,,,,,,,
w35d67ff,439864,,survey-text,,59783,,"{""Q0"":""Pick the furthest away nodes, as those vary most wildly"",""Q1"":""Look at the next-19-year price""}",,,,,,,,,,,,,,,,,
w35d67ff,514245,,survey-text,,73333,,"{""Q0"":""If the price is relatively cheap for information, spend heavily "",""Q1"":""Pay for credit counseling"",""Q2"":""Buying information about financial outcomes as cost-efficiently as possible ""}",,,,,,,,,,,,,,,,,
w35d67ff,557681,,survey-text,,32195,,"{""Q0"":""Nope"",""Q1"":""Not clear if the pattern of the longest-away flights being the most volatile will persist to the next challenge ""}",,,,,,,,,,,,,,,,,
w6bb907b,459486,,survey-text,,113524,,"{""Q0"":""Click the end destinations to see the good flight plan. "",""Q1"":""I would choose the long term one based on the flight plan.""}",,,,,,,,,,,,,,,,,
w6bb907b,607386,,survey-text,,146871,,"{""Q0"":""Plan for the long term and make that your goal."",""Q1"":""Investing my money."",""Q2"":""It is similar because in the long run it is going to pay off more.""}",,,,,,,,,,,,,,,,,
w6bb907b,626573,,survey-text,,8293,,"{""Q0"":""No"",""Q1"":""No""}",,,,,,,,,,,,,,,,,
w6392fb9,443044,,survey-text,,66729,,"{""Q0"":""Find the best destination first."",""Q1"":""Choose the one that has the best rate for 19 years.""}",,,,,,,,,,,,,,,,,
w6392fb9,489710,,survey-text,,45631,,"{""Q0"":""The final destination should be your goal."",""Q1"":""I'm not sure."",""Q2"":""I\""m not sure.""}",,,,,,,,,,,,,,,,,
w6392fb9,502565,,survey-text,,2277,,"{""Q0"":"""",""Q1"":""""}",,,,,,,,,,,,,,,,,
w9964b87,491170,,survey-text,,85368,,"{""Q0"":""To me, the more information you have the better so I did not look at the clicks as a waste."",""Q1"":""Assess all the information and make the best choice based on current wealth, future prospects, and best path forward""}",,,,,,,,,,,,,,,,,
w9964b87,690518,,survey-text,,198322,,"{""Q0"":""Do you need as much information as possible or can you take steps believing you are on the best path?"",""Q1"":""I research as many things as possible before acting. When purchasing a new toothbrush recently, I looked at all the reviews, recommendations, price, and cost of replacements to make my decision."",""Q2"":""I sought out all the information, without regard to the time it took to make my decision. ""}",,,,,,,,,,,,,,,,,
w9964b87,707445,,survey-text,,7281,,"{""Q0"":""No"",""Q1"":""No""}",,,,,,,,,,,,,,,,,
w5c03936,376689,,survey-text,,13292,,"{""Q0"":"""",""Q1"":""""}",,,,,,,,,,,,,,,,,
w5c03936,388410,,survey-text,,10690,,"{""Q0"":"""",""Q1"":"""",""Q2"":""""}",,,,,,,,,,,,,,,,,
w5c03936,403809,,survey-text,,1901,,"{""Q0"":"""",""Q1"":""""}",,,,,,,,,,,,,,,,,
w6b242c5,576900,,survey-text,,151550,,"{""Q0"":""I think finding out how much you jend up with at the end of the flight is better than just randomly clicking all around."",""Q1"":""Find out what it would be for the next 19 years would be best for me.""}",,,,,,,,,,,,,,,,,
w6b242c5,771538,,survey-text,,193605,,"{""Q0"":""Well I would say what worked best for me was finding out what the last flight plan would be and make a decision that way."",""Q1"":""If I were going to purchase something being able to know how much it would cost in the long run is what I would like to know."",""Q2"":""Well me clicking the end of the flight let me see if I would earn or lose money, so it worked best for my strategy.""}",,,,,,,,,,,,,,,,,
w6b242c5,805524,,survey-text,,21078,,"{""Q0"":""No, it was pretty straight forward."",""Q1"":""No ""}",,,,,,,,,,,,,,,,,
w827fc90,280214,,survey-text,,85388,,"{""Q0"":""If two of the three \""first moves\"" are negative options, I can take the risk that the third first move will be positive. If I can select a final destination that has a high reward, I will take the risk of losing points to end up there."",""Q1"":""I would look at the final destination for each interest rate-- what would each one look like at the end of 19 years? Then I could get a better idea which one would be of best interest to me.""}",,,,,,,,,,,,,,,,,
w827fc90,406881,,survey-text,,125650,,"{""Q0"":""It's still okay to take risks in life, everybody does, but you can make sure those risks are calculated enough where you'll still end up in a positive place."",""Q1"":""It would help me when it comes to owning a dog, seeing as there are certain fixed costs like food and then other intermittent costs like vet visits. "",""Q2"":""I can see how certain moves will set me back financially, like getting dog training and investing in good food, but this will save me in the long run (less chance of accidents and less health problems).""}",,,,,,,,,,,,,,,,,
w827fc90,420659,,survey-text,,5037,,"{""Q0"":""No"",""Q1"":""No""}",,,,,,,,,,,,,,,,,
w8474857,568254,,survey-text,,175030,,"{""Q0"":""Clicking only one of the edges/ends, and if it has either 24 or -48, move on to another until 48 is found. That tends to make finding 48 in the least clicks easiest."",""Q1"":""This doesn&#8217;t really feel related to how I played the game. but I would likely choose based on which one gives me the most advantages across the board rather than just in one of the axes/timelines. Focusing on the 19 years&#8217; interest could/would be ideal because of the accumulation, but otherwise I wouldn&#8217;t fuss myself too hard about the most optimal choice. A lot can happen in 20 years.""}",,,,,,,,,,,,,,,,,
w8474857,652909,,survey-text,,83630,,"{""Q0"":""Take your time, weigh your options, but if the opportunity arises, take it."",""Q1"":""Not applicable."",""Q2"":""Not applicable.""}",,,,,,,,,,,,,,,,,
w8474857,720933,,survey-text,,41571,,"{""Q0"":""Yes. I&#8217;m not entirely sure how any of this is /actually/ related to life as metaphors. I don&#8217;t particularly want the answers told to me, but I did wonder."",""Q1"":""N/A""}",,,,,,,,,,,,,,,,,
w61f7f66,608975,,survey-text,,140786,,"{""Q0"":""Click on just two of the spots on each path and if both spots are profitable then it's most likely the most profitable path."",""Q1"":""I'd choose the mortgage that has the lowest interest rate for the last 19 years.""}",,,,,,,,,,,,,,,,,
w61f7f66,737630,,survey-text,,127649,,"{""Q0"":""Pick the path that has the most profit even if there's a loss at a few parts."",""Q1"":""Loans."",""Q2"":""Loans can have different interest rates at different parts.""}",,,,,,,,,,,,,,,,,
w61f7f66,763010,,survey-text,,14309,,"{""Q0"":""Nope."",""Q1"":""No comment. :-)""}",,,,,,,,,,,,,,,,,
w66dbfb9,616696,,survey-text,,264712,,"{""Q0"":""Consider the long term end-point.  Look for the path the will earn the most.  The highest paid end-point is the best path to take.  Click all of the end points until you find the highest $(usually $48).  Then take that path to get there. "",""Q1"":""Choose the loan that has the lowest interest rate for the next 19 years.  That is the rate that you will be paying for the longest time, and you want it to be as low as possible.""}",,,,,,,,,,,,,,,,,
w66dbfb9,848654,,survey-text,,230916,,"{""Q0"":""Think about where you want to end up and plan your path accordingly.  There may be some hiccups on the way, but you will win out in the end.  "",""Q1"":""I want to lose 10 pounds so I can fit into an old pair of jeans.  I limit my calorie intake and exercise several days a week so that I can meet my goal.  "",""Q2"":""I think about my desired outcome.  I don't enjoy dieting and exercise, but I have to get through that so that I can wear those jeans again.  ""}",,,,,,,,,,,,,,,,,
w66dbfb9,865886,,survey-text,,3453,,"{""Q0"":"""",""Q1"":""""}",,,,,,,,,,,,,,,,,
w2ab54ce,624118,,survey-text,,226168,,"{""Q0"":""Click on furthest destinations until finding one that pays max benefit (48 for this game) and then stop checking destinations and begin moving to the destination. If max benefit isn't found, then once all furthest destinations have been checked, identify one that pays the most benefit in the current round and begin moving to it."",""Q1"":""Choose the mortgage with the lowest final-19-year interest rate.""}",,,,,,,,,,,,,,,,,
w2ab54ce,733502,,survey-text,,108366,,"{""Q0"":""Focus on final outcomes. Choose a path that takes you to a destination with maximum benefit."",""Q1"":""Searching for a new job. Look at potential long-term benefits and choose the job with the largest long-term benefit."",""Q2"":""It focuses on long-term benefit from the destination.""}",,,,,,,,,,,,,,,,,
w2ab54ce,758014,,survey-text,,10561,,"{""Q0"":""No"",""Q1"":""No""}",,,,,,,,,,,,,,,,,
w0ad7a18,474084,,survey-text,,91759,,"{""Q0"":""Find out the mid term and long term consequences to a decision early. "",""Q1"":""I would look at the long term consequences for each loan, compare the mid term consequences and not worry as much about the short term consequences if the mid and long terms are better than the other loans. ""}",,,,,,,,,,,,,,,,,
w0ad7a18,598875,,survey-text,,123783,,"{""Q0"":""You should weight the long term consequences vs the mid term and not exactly worry about the short term losses or gains. "",""Q1"":""This strategy would work well for business planning, such as an investment in tools or software that may have a short term loss but a steady mid term and long term gain. "",""Q2"":""This is similar because some of the short trips cost me money, but the final destination paid those off in the long term gains. ""}",,,,,,,,,,,,,,,,,
w0ad7a18,633471,,survey-text,,28545,,"{""Q0"":""No it was all very easy to understand. "",""Q1"":""No I enjoyed this first part of the study and thinking about how I could apply it to other parts of my life. ""}",,,,,,,,,,,,,,,,,
w5c088bb,238875,,survey-text,,39159,,"{""Q0"":""Take the earliest discovered optimal route"",""Q1"":""Choose the best long term rate""}",,,,,,,,,,,,,,,,,
w5c088bb,272702,,survey-text,,32822,,"{""Q0"":""Focus on long term, dont be offset by short term costs"",""Q1"":""Investing in an education"",""Q2"":""You need to pay upfront (landing at the smaller airports) to get to the destination""}",,,,,,,,,,,,,,,,,
w5c088bb,289129,,survey-text,,6429,,"{""Q0"":""nope"",""Q1"":""nope\n""}",,,,,,,,,,,,,,,,,
w5a140d3,491556,,survey-text,,88790,,"{""Q0"":""I just started going right for the destinations and stopped wasting time and money on any of the nodes in between."",""Q1"":""I would also be trying to pick the one that saved me the most money.""}",,,,,,,,,,,,,,,,,
w5a140d3,666450,,survey-text,,173793,,"{""Q0"":""I think we're always trying to pick the best path in life and this can be applied to pretty much everything."",""Q1"":""Trying to make decisions about having medical procedures."",""Q2"":""Trying to pick the path that will be most beneficial to my situation.""}",,,,,,,,,,,,,,,,,
w5a140d3,680804,,survey-text,,4641,,"{""Q0"":""No"",""Q1"":""NA""}",,,,,,,,,,,,,,,,,
w03d79e5,712398,,survey-text,,105465,,"{""Q0"":""Well if you only click on one and it is positive, just follow that path and hopefully the entire path will be positive. "",""Q1"":""I would always look for the lowest interest rates.""}",,,,,,,,,,,,,,,,,
w03d79e5,1037201,,survey-text,,323793,,"{""Q0"":""Well I think  I would say to just go with the best gut decision you can because life will have gut decisions at every corner."",""Q1"":""This decision will work best with choices that have to be made quickly. I once had to make a choice between job offers and I just went with the job that made me most comfortable."",""Q2"":""I had to use my gut and go quickly because life is about quick choices.""}",,,,,,,,,,,,,,,,,
w03d79e5,1078960,,survey-text,,9637,,"{""Q0"":""Nothing was hard to understand"",""Q1"":""""}",,,,,,,,,,,,,,,,,
w4a334cd,670532,,survey-text,,72045,,"{""Q0"":""Checking all the other long term consequences. "",""Q1"":""Choose which has the best long term interest rate. ""}",,,,,,,,,,,,,,,,,
w4a334cd,785639,,survey-text,,114101,,"{""Q0"":""That it's alright to make a mistake or go through a struggle, that it'll always turn around and get better if you know you have good coming towards you. "",""Q1"":""Thinking about college because long term you get a degree which will help get you a good job. But short term you have to go through the struggle of exams and tests and it'll be hard. "",""Q2"":""This situation is very similar seeing as you kind of know the long term effects. ""}",,,,,,,,,,,,,,,,,
w4a334cd,837379,,survey-text,,41655,,"{""Q0"":""Yes, I think a test round would be beneficial. I didn't understand the game or what the intelligent tips were telling me until about 3 or 4 rounds in. "",""Q1"":""""}",,,,,,,,,,,,,,,,,
w093eaeb,1209757,,survey-text,,193157,,"{""Q0"":""by knowing the profit and loses I will make before taking a flight"",""Q1"":""will see which will benefit me the most\n""}",,,,,,,,,,,,,,,,,
w093eaeb,1446464,,survey-text,,235654,,"{""Q0"":""Art flight is a nice game that helps making decisions in life"",""Q1"":""making an investment"",""Q2"":""very similar""}",,,,,,,,,,,,,,,,,
w093eaeb,1482819,,survey-text,,20187,,"{""Q0"":""not really"",""Q1"":""thanks ""}",,,,,,,,,,,,,,,,,
w7bcba3b,334590,,survey-text,,48567,,"{""Q0"":""Check airports first, if two have identical values, check cost of paths."",""Q1"":""I would consider the overall cost of each.""}",,,,,,,,,,,,,,,,,
w7bcba3b,412947,,survey-text,,77337,,"{""Q0"":""Try to optimize longterm goals but accept that short or medium term losses can still net a better payoff than short/medium term gains."",""Q1"":""Car loan lengths. A shorter length has higher monthly dues but lower interest, and you end up paying less over time. "",""Q2"":""I had to optimize my overall savings even if it meant taking a short or medium term loss.""}",,,,,,,,,,,,,,,,,
w7bcba3b,425826,,survey-text,,4033,,"{""Q0"":""No"",""Q1"":""NA""}",,,,,,,,,,,,,,,,,
w0d91644,456391,,survey-text,,108350,,"{""Q0"":""I always clicked on the destination bubbles first to see the long term pay out. After that, I would click on the middle buttons to see if I earned or lost money during the route. I'd click on the other connector bubble just to be sure in my plan."",""Q1"":""I would choose between them by looking at which one would benefit me in the long term.""}",,,,,,,,,,,,,,,,,
w0d91644,553595,,survey-text,,96180,,"{""Q0"":""The lesson that I learned during the Flight Planning was that sometimes you have to take losses to gain a big win at the end."",""Q1"":""This strategy would work well during the times that I have to invest in myself."",""Q2"":""I will have to occur some losses and some roadblocks, but at the end of the day it will have been worth it.""}",,,,,,,,,,,,,,,,,
w0d91644,600792,,survey-text,,33195,,"{""Q0"":""Nothing. Everything was well explained."",""Q1"":""I really enjoyed this study and I can't wait for part two tomorrow. Thank you!""}",,,,,,,,,,,,,,,,,
wb35a5f8,565068,,survey-text,,113542,,"{""Q0"":""Checking ending of paths and comparing to the middle proportionally "",""Q1"":""Picking which had the best interest for the remaining 19 years""}",,,,,,,,,,,,,,,,,
wb35a5f8,627939,,survey-text,,61846,,"{""Q0"":""Set goals and compare paths to get there"",""Q1"":""Picking a college degree that I enjoyed getting and will pay well"",""Q2"":""Finding a good path to take""}",,,,,,,,,,,,,,,,,
wb35a5f8,676155,,survey-text,,34834,,"{""Q0"":""No"",""Q1"":""Make clicks for information more like 5$ each""}",,,,,,,,,,,,,,,,,
w93869a6,416036,,survey-text,,111789,,"{""Q0"":""Notice where the $48 reward was most often and click the most commonly occurring locations for it first click on the next round."",""Q1"":""I am failing to see the correlation between these methods of decision making. Honestly, I wouldn't trust myself to make a choice about a mortgage without a professional helping me, as I'm awful with finances. ""}",,,,,,,,,,,,,,,,,
w93869a6,575892,,survey-text,,158852,,"{""Q0"":""Know the maximum reward and the maximum risk a situation will yield before making a blind choice to do something."",""Q1"":""When I first moved to New York City, I found a place that was super cheap yet very far from grocery stores and train stations. If I hadn't looked at those things, I would've spent more money on uber/taxi to do those things that the very small amount difference in rent for that place to the other place i found next to the train AND grocery store."",""Q2"":""In flight planning, if you don't check ahead to see what the result might be, you will end up losing money most likely (unless you're really lucky). I had to plan my flight path to make the most money, just like I had to plan where to move in order to ultimately save the most money.""}",,,,,,,,,,,,,,,,,
w93869a6,605410,,survey-text,,18926,,"{""Q0"":""I didn't get the mortgage question and how that applied to the game. "",""Q1"":""Very fun game, I loved it!""}",,,,,,,,,,,,,,,,,
w202e807,775959,,survey-text,,110244,,"{""Q0"":""Checking out final destinations first."",""Q1"":""I'll choose the remainder of the first year.""}",,,,,,,,,,,,,,,,,
w202e807,874784,,survey-text,,97791,,"{""Q0"":""Not sure"",""Q1"":""Investments"",""Q2"":""I aim at destinations that bring me the most.""}",,,,,,,,,,,,,,,,,
w202e807,897314,,survey-text,,8147,,"{""Q0"":""No"",""Q1"":""No""}",,,,,,,,,,,,,,,,,
w88fa9c1,276309,,survey-text,,66854,,"{""Q0"":""Investigate the final destinations (i.e. the long-term consequences of my decisions), which can either be extremely profitable or extremely harmful."",""Q1"":""I would consider, above all, the long-term interest rates and consequences of going with one of the given loans.""}",,,,,,,,,,,,,,,,,
w88fa9c1,349240,,survey-text,,71922,,"{""Q0"":""Short-term consequences aren't everything. We can, and must, think ahead about the long-term consequences of our actions."",""Q1"":""Deciding what to major in in college."",""Q2"":""We must be able to consider what decisions will work out best for us in the long term -- one decision can have a domino effect of sorts.""}",,,,,,,,,,,,,,,,,
w88fa9c1,370501,,survey-text,,11385,,"{""Q0"":""Nothing I can think of."",""Q1"":""No, thank you!""}",,,,,,,,,,,,,,,,,
we2c2af5,418414,,survey-text,,104328,,"{""Q0"":""You can look at the last stops to see how much will be gained at the end. If it ends up being negative, you most likely wouldn't want to go on that route"",""Q1"":""Whichever one will have the biggest benefit in the end will be the best option.""}",,,,,,,,,,,,,,,,,
we2c2af5,588451,,survey-text,,169032,,"{""Q0"":""Sometimes it's okay to take a route thatll lose you money if it means theres a bigger net gain at the end."",""Q1"":""First job would be my example. Nobody loves their first job or thinks they will be there forever, but if it's a way to leverage you to a higher position or make more networks, it's worth the time there."",""Q2"":""If you're losing money to make money, you'll end up fine""}",,,,,,,,,,,,,,,,,
we2c2af5,596496,,survey-text,,2537,,"{""Q0"":"""",""Q1"":""""}",,,,,,,,,,,,,,,,,
wfcb5827,444953,,survey-text,,108804,,"{""Q0"":""Find out what destinations have the best reward and just decide to go there."",""Q1"":""I would probably pick the one with the best rate for the next 19 years, since I would have to deal with that the longest.""}",,,,,,,,,,,,,,,,,
wfcb5827,578615,,survey-text,,132641,,"{""Q0"":""Figure out what end goal offers the best reward and select the path that gets you there."",""Q1"":""I should think of the job I want six months to a year from now, and work to attain the skills I need to get it."",""Q2"":""I would figure the company with the most attractive package, figure the skills they want and make sure I can demonstrate them. ""}",,,,,,,,,,,,,,,,,
wfcb5827,592471,,survey-text,,4747,,"{""Q0"":""No"",""Q1"":""""}",,,,,,,,,,,,,,,,,
w7e4b254,331316,,survey-text,,65425,,"{""Q0"":""find the highest value at the end and work backwards"",""Q1"":""find out which will cost less overall at the end of your mortgage""}",,,,,,,,,,,,,,,,,
w7e4b254,419725,,survey-text,,87379,,"{""Q0"":""think of what big end goal they want and work backwards"",""Q1"":""long term plans such as my career, buying a house, settling down, etc."",""Q2"":""figure out my most profitable desired end and work to meet it""}",,,,,,,,,,,,,,,,,
w7e4b254,436490,,survey-text,,6638,,"{""Q0"":""no"",""Q1"":""was fun""}",,,,,,,,,,,,,,,,,
w98ec025,643894,,survey-text,,117101,,"{""Q0"":""if I get a low positive number, take it rather than continuing to look for the big number. "",""Q1"":""I would choose a rate that has a better rate long term. ""}",,,,,,,,,,,,,,,,,
w98ec025,880109,,survey-text,,235207,,"{""Q0"":""It is okay to settle for small consistent rewards. "",""Q1"":""Deciding to leave a job that was unhealthy. "",""Q2"":""I decided to risk the loss of great success in favor of a more healthy lifestyle. ""}",,,,,,,,,,,,,,,,,
w98ec025,897254,,survey-text,,8877,,"{""Q0"":""no"",""Q1"":""no""}",,,,,,,,,,,,,,,,,
w9c4b289,866068,,survey-text,,167138,,"{""Q0"":""I can look at the long-term effects of the flight path by clicking on the last two flight paths in a given direction, whether I choose to go up, left, or right.  Instead of checking each airport in the direction I might go, which is what I did in most of the rounds.  I don't like the unknown very well, I'm not much of a gambler when it comes to making life choices."",""Q1"":""I would look at how those rates will change in the next 19 years first since the first month won't hurt as much financially if the rates are high first and then go down throughout the life of the loan.""}",,,,,,,,,,,,,,,,,
w9c4b289,1300211,,survey-text,,433119,,"{""Q0"":""I would tell them that they can choose 3 different directions in the beginning, and can choose to pay in order to remove doubt in the direction they may choose in order to understand what may happen with the direction they chose to travel.  Really I would tell them that this game represents how we can lose or gain in life through the paths we take, and if we understand what the outcomes of those paths can yield, we can understand better and plan better in what path to take."",""Q1"":""One example I can think of was whether I should pursue a career in the military or go to college when I graduated high school, using this strategy I could have understood better what I would gain and what I could lose depending on which path I were to choose.  Since I chose the military, I learned that I gained integrity, an appreciation for camaraderie, work ethic, but at a cost of making less money than if I went to college, and a loss of academic knowledge that would have also been beneficial to me later in life, but the military gave me a work ethic, that I don't believe college would have provided, which I argue is more valuable than just having a good amount of academic knowledge."",""Q2"":""I think it is similar because I still was faced with having to choose which directions I took in the military in order to gain or lose whether it was money I gained or lost or other things of value, I still have plenty of directions I had to choose in order to continue down the basic path that I had chosen.""}",,,,,,,,,,,,,,,,,
w9c4b289,1430699,,survey-text,,114512,,"{""Q0"":""I didn't realize at first that I should have clicked on the last circles in each path to realize the long term ramifications of my flight path until towards the end, but that was not really confusing, just something that I should have realized by the instructions telling me that."",""Q1"":""I hope that my reasons to the questions were not too wordy, or off topic, I did enjoy this study and look forward to the second round tomorrow.""}",,,,,,,,,,,,,,,,,
w1192040,290636,,survey-text,,43510,,"{""Q0"":""Look at the end destination more than the journey towards it."",""Q1"":""I would choose the one that has the lowest interest rate at the end.""}",,,,,,,,,,,,,,,,,
w1192040,360440,,survey-text,,68780,,"{""Q0"":""I would tell them to consider the final destination and then the journey towards it."",""Q1"":""This could work well for deciding where I want to go on vacation first and then planning the steps to get there."",""Q2"":""This is similar to the game because I would need a final destination (the vacation) and then smaller flights towards it (the planning steps).""}",,,,,,,,,,,,,,,,,
w1192040,373408,,survey-text,,5209,,"{""Q0"":""No"",""Q1"":""Thank you!""}",,,,,,,,,,,,,,,,,
w355bc50,585678,,survey-text,,234023,,"{""Q0"":""you can click on the \""endings\"" of the path to see what the biggest digit is."",""Q1"":""I would choose the interest rate for the next 19 years""}",,,,,,,,,,,,,,,,,
w355bc50,688463,,survey-text,,101755,,"{""Q0"":""Always think about the future impact, not the temporary impact."",""Q1"":""I attended community college because I knew I would be riddled in debt if I attended a private college."",""Q2"":""This situation is similar because I had to think about the long term costs of my actions.""}",,,,,,,,,,,,,,,,,
w355bc50,704389,,survey-text,,5020,,"{""Q0"":""Nope"",""Q1"":""""}",,,,,,,,,,,,,,,,,
w03510c5,833382,,survey-text,,513596,,"{""Q0"":""In this game is seemed as though the best strategy to reduce clicks was to First check the end points in search of one with a maximum +48 value and then simply follow that path. However this strategy only seemed to work because the first and second \""short and mid term\"" points had a maximum  value of (-)+8 or so. If it was possible that all 3 of the points contained values between -48 and 48 is it not +expected value to simply spend the 1 dollar to reveal all nodes for each path?"",""Q1"":""Based on the flight simulator I would chose the loan in which the rate will change in the first month only because the flight simulator showed that the first node had the lowest amount of risk while the last node could have a large positive value it also had larger negative values ""}",,,,,,,,,,,,,,,,,
w03510c5,1182413,,survey-text,,347956,,"{""Q0"":""I would tell them that blindly choosing a path seems like its only a particularly valid choice when the game is constructed purposefully to make confirm the researchers assumptions. And unfortunately life isn't like that so perhaps take it with a grain of salt."",""Q1"":""If I know  that the immediate risks are not very great then I can chose the path with the greatest reward. I can see this mindset being useful in overcoming inaction or lack of motivation because the risk of doing is minimal compared to the potential long term  benefit "",""Q2"":""This is similar to the flight simulator because e the game forces you to make decisions without as much information as would be optimal however over time you can learn that the risk of your initial decisions arent that great ""}",,,,,,,,,,,,,,,,,
w03510c5,1253616,,survey-text,,57100,,"{""Q0"":""The question regarding the mortgage is worded very unclearly and doesnt make much sense "",""Q1"":""nope =)""}",,,,,,,,,,,,,,,,,
w5c82366,337499,,survey-text,,63281,,"{""Q0"":""I adjusted my aim - instead of trying to find the highest reward, once I clicked and found a decent reward, I committed to it."",""Q1"":""What is the best deal I can get where I'm in the \""green\"" so to speak. I don't need to hoard a bunch of money, I just need to comfortably get by.""}",,,,,,,,,,,,,,,,,
w5c82366,404309,,survey-text,,65789,,"{""Q0"":""It's about examining long, short, and mid term consequences in order to progress."",""Q1"":""Selecting my next job - it shouldn't be just anything, completely unrelated to my field, but I don't need to be so picky about finding a perfect spot. Something in between that will cover my needs. "",""Q2"":""It's about finding a middle ground in terms of expectations and reward.""}",,,,,,,,,,,,,,,,,
w5c82366,414840,,survey-text,,4991,,"{""Q0"":""No"",""Q1"":""None""}",,,,,,,,,,,,,,,,,
w7d702f2,589779,,survey-text,,215250,,"{""Q0"":""Click on just the final destination locations until I find a $48 one then fly to that one?  The math might workout over 10 rounds.\n\nThis time I just clicked thru most of the destinations so I had all the information available."",""Q1"":"" I think I understand the question?  I would look at what I might be making over the course of my lifetime and determine what kind of mortgage I could afford based on where I'd be in 20 years.""}",,,,,,,,,,,,,,,,,
w7d702f2,781482,,survey-text,,190682,,"{""Q0"":""A society grows great when old men plant trees whose shade they know they shall never sit in."",""Q1"":""Health.  If you don't exercise and eat like garbage in 20 years you'll end up with disease and illness.  If you take care of yourself by exercising and eating right you won't have as many problems in old age."",""Q2"":""Understanding where you want to be when you're older is the key to making sure you stay on track.""}",,,,,,,,,,,,,,,,,
w7d702f2,828968,,survey-text,,33693,,"{""Q0"":""I had to think through the questions a little bit but I think I understood them."",""Q1"":""Fun study, thanks!""}",,,,,,,,,,,,,,,,,
w79cb3a2,739226,,survey-text,,51318,,"{""Q0"":""I click on the end points and ignore the journey points."",""Q1"":""I'd calculate which plan had the lowest interest and pick that.""}",,,,,,,,,,,,,,,,,
w79cb3a2,880431,,survey-text,,140197,,"{""Q0"":""Well, the way I played this game makes it seem like the destination is the only valuable thing, which I don't agree with."",""Q1"":""Maybe banking related things? Because ideally you want to spend the least amount, so by picking a plan and working backwards maybe you don't get screwed out of money."",""Q2"":""You want to maximize your profit and lower costs as much as possible.""}",,,,,,,,,,,,,,,,,
w79cb3a2,943526,,survey-text,,54572,,"{""Q0"":""Nope."",""Q1"":""I'm curious about your trick for the second session!""}",,,,,,,,,,,,,,,,,
wbb1a933,593447,,survey-text,,58423,,"{""Q0"":""I could check the destinations first and whichever has a higher profit, just take that path. "",""Q1"":""I would choose those that have lowest interest rates. ""}",,,,,,,,,,,,,,,,,
wbb1a933,813337,,survey-text,,218853,,"{""Q0"":""I would say this could be a lesson on how to map out your life. Checking those mini steps and seeing how the overall goal at the end of the destination can benefit you. It is all trial and error, especially those first few rounds, but you get the hang of life once you start understanding how to navigate it. "",""Q1"":""I think when I decide to become a homeowner or want to continue my education. Checking to see what steps I need to take in order to make it to that long term goal. Will the long term benefit me at the end of it all after taking those baby steps."",""Q2"":""It's like when I saw there was a destination for $48. I was afraid at first that the mini steps would charge me -$48, but once I realized that the overall goal is to attain that $48, then I stopped making the mistake in doubting those baby steps, I just took that path and ended with a bigger profit. ""}",,,,,,,,,,,,,,,,,
wbb1a933,840585,,survey-text,,15585,,"{""Q0"":""no, you just get an idea of how to navigate the game later."",""Q1"":""""}",,,,,,,,,,,,,,,,,
w21b72c7,540146,,survey-text,,40123,,"{""Q0"":""Click the end of the routes"",""Q1"":""i'd choose the best interest rate for the next 19 years""}",,,,,,,,,,,,,,,,,
w21b72c7,599432,,survey-text,,58228,,"{""Q0"":""To always take all info into account and look at the long term outlook"",""Q1"":""The stock market"",""Q2"":""I have to look at the long term and not just the short term results""}",,,,,,,,,,,,,,,,,
w21b72c7,612861,,survey-text,,4624,,"{""Q0"":""no"",""Q1"":""no""}",,,,,,,,,,,,,,,,,
w4004298,446051,,survey-text,,140816,,"{""Q0"":""Click on end destinations to find out where the +48 is. Only click additional spots if there are two at +48 (or two tied at the highest positive amount)."",""Q1"":""I'm not sure I understand the wording of the question. Assuming the three are different types of loans, I would look at the amount of interest I would owe at the end of the mortgage period to choose the one with the least owed at the end.""}",,,,,,,,,,,,,,,,,
w4004298,612498,,survey-text,,165429,,"{""Q0"":""Make small sacrifices to figure out the best route with the best result, then go do it."",""Q1"":""Maybe in picking a computer that would serve me the best by thinking about how it will hold up in the long term and how happy I'll be with it overall."",""Q2"":""I shouldn't rush to buy a new computer. I should weigh my different options and think ahead before making such a large purchase. That way I don't end up rushing and getting something that I hate.""}",,,,,,,,,,,,,,,,,
w4004298,630802,,survey-text,,6638,,"{""Q0"":""No"",""Q1"":""No""}",,,,,,,,,,,,,,,,,
wf9761ce,494851,,survey-text,,120767,,"{""Q0"":""Click on the long-term consequence (airport 3) first to determine which have the highest payoff, then narrow down options from only among those with the best payoff for that round with the intermediate payoff (airport 2) options and then possibly short-term payoffs (airport 1). "",""Q1"":""Lowest interest rates for the longest term (19 years).""}",,,,,,,,,,,,,,,,,
wf9761ce,638848,,survey-text,,142934,,"{""Q0"":""Consider the long-term consequences before considering short-term/temporary losses/gains. "",""Q1"":""Pushing through grad school to obtain an advanced degree. "",""Q2"":""Grad school has a lot of small costs in the short term, but the advanced degree has much larger, later payoffs""}",,,,,,,,,,,,,,,,,
wf9761ce,655533,,survey-text,,6512,,"{""Q0"":""No"",""Q1"":""No""}",,,,,,,,,,,,,,,,,
w34b3b14,523987,,survey-text,,165876,,"{""Q0"":""Click only on the end destinations and stop when you hit one with a good payout. "",""Q1"":""I would choose the loan with the best rate of interest over the 19 years. If it was possible, I'd go for a loan that had the highest interest in the first month, less interest over the remainder of the first year, then the lowest rate for the 19 year span.""}",,,,,,,,,,,,,,,,,
w34b3b14,703156,,survey-text,,178147,,"{""Q0"":""You want to think of the long term investment first, then find the quickest and least expensive way to accomplish your financial goals over time."",""Q1"":""Monthly budgeting for paying down loans and debts."",""Q2"":""You have to consider the amount paid out each month with your salary as well as the amount of interest you'd be paying over time on each bill. You want a total that doesn't leave you flat broke, but will pay off your debts quickly so you pay less interest over time.""}",,,,,,,,,,,,,,,,,
w34b3b14,720293,,survey-text,,7356,,"{""Q0"":""No"",""Q1"":""No""}",,,,,,,,,,,,,,,,,
w6c91f53,450227,,survey-text,,103980,,"{""Q0"":""I usually invest my clicks in the path that has better profit early on and if I don't find a path I feel is acceptable there, I will move on to the route with the second best initial profit next and so on."",""Q1"":""I would take more time or spend more money investigating what has the best interest rate in the final years.""}",,,,,,,,,,,,,,,,,
w6c91f53,625720,,survey-text,,174474,,"{""Q0"":""It is always worth more to look at how your plans pay out further down the road than to just think of the short term"",""Q1"":""I am spending time investigating credit unions and savings bonds they offer. "",""Q2"":""It may cost more time to compare each bank and the interest rates for both their shares and bonds and their accounts, but it is worth it to find the one that works best. Taking time to investigate also costs a small amount of money because it means waiting longer to make my initial investment and costing that amount of time's worth of compound interest.""}",,,,,,,,,,,,,,,,,
w6c91f53,667485,,survey-text,,33698,,"{""Q0"":""no"",""Q1"":""I realized an even better strategy once I completed the game and was answering the questions at the end of the survey but I will be able to implement it tomorrow.""}",,,,,,,,,,,,,,,,,
w9eab211,502390,,survey-text,,28188,,"{""Q0"":""Click on the outer ones until you see 48\n"",""Q1"":""which gives you the best cost in the long run""}",,,,,,,,,,,,,,,,,
w9eab211,531886,,survey-text,,28486,,"{""Q0"":""think about the long term"",""Q1"":""Choosing a credit card APR"",""Q2"":""You have to think about the long term cost""}",,,,,,,,,,,,,,,,,
w9eab211,572077,,survey-text,,35124,,"{""Q0"":""Yes - all of it - It wasn't clear when you could click and sometimes the plane moved in the opposite direction from what I intended"",""Q1"":""nope!""}",,,,,,,,,,,,,,,,,
w18c6801,842068,,survey-text,,253615,,"{""Q0"":""First, determine the impact of the long-term consequences since this will have the most significant effects."",""Q1"":""Focus mainly on the long-term interest rate since you will be paying this for the majority of the time.""}",,,,,,,,,,,,,,,,,
w18c6801,1365266,,survey-text,,522167,,"{""Q0"":""The lesson learned is that it is most important to understand what the long-term consequences will be from actions taken. It doesn't matter if things start out great and positive when the long-term results will be greatly negative."",""Q1"":""In choosing to lose weight and get control over one's health, it may seem negative at first or even positive to some degree. This really doesn't matter because the great benefits from the long-term goal will be far greater than anything, positive or negative, experienced along the way."",""Q2"":""It's very similar in that it's important to focus on the long-term and not be fooled by the short-term outcomes.""}",,,,,,,,,,,,,,,,,
w18c6801,1407283,,survey-text,,17961,,"{""Q0"":""no"",""Q1"":""no comments, thanks.""}",,,,,,,,,,,,,,,,,
we6f0dfa,315791,,survey-text,,72385,,"{""Q0"":""Click on end destinations to maximize profits"",""Q1"":""I would choose the loan that has the most steady interest rate""}",,,,,,,,,,,,,,,,,
we6f0dfa,485657,,survey-text,,168859,,"{""Q0"":""Small risks may need to be taken to get a larger reward"",""Q1"":""I spent some money on a training course that ultimately didn't lead to new or better job prospects but I gained knowledge"",""Q2"":""I took a risk knowing the outcomes but was unsure of the exact outcome""}",,,,,,,,,,,,,,,,,
we6f0dfa,500163,,survey-text,,1771,,"{""Q0"":"""",""Q1"":""""}",,,,,,,,,,,,,,,,,
wc4d18d1,467841,,survey-text,,39780,,"{""Q0"":""I can increase my chances by only clicking on each path once and guessing what's on the opposite dot."",""Q1"":""I would choose the one that saves me the most money in the long run, even if I have to pay more now.""}",,,,,,,,,,,,,,,,,
wc4d18d1,540900,,survey-text,,72042,,"{""Q0"":""I think I would tell them that sometimes you do have to spend money so that you can make more money in the long run, especially so that you can move more quickly to where you want to be."",""Q1"":""I think this would apply in terms of taking extra courses, yes they might cost money but long-term they will allow me to land a higher-paying job."",""Q2"":""This situation is similar because in the game you have to spend a small amount of money on clicks in order to makr $48 in the end.""}",,,,,,,,,,,,,,,,,
wc4d18d1,556129,,survey-text,,4394,,"{""Q0"":""No"",""Q1"":""No""}",,,,,,,,,,,,,,,,,
w7372f01,434588,,survey-text,,56859,,"{""Q0"":""One way to do it is to try to see where is a negative area and then fly away from that area."",""Q1"":""I would look at the different interest options and choose the one that would be cheapest over the longest period of time. ""}",,,,,,,,,,,,,,,,,
w7372f01,505283,,survey-text,,69683,,"{""Q0"":""I would tell them that if you want to save money in the long run, you should see what all of your options are up front."",""Q1"":""I think that this would help me actually in just stopping to think about my life and what techniques I should use to go forward before I make decisions about things."",""Q2"":""I think that when you want to make a decision, it can be easy to go for just what's right in front of you, but it might be better to stop and wait and try to predict where certain outcomes may be.""}",,,,,,,,,,,,,,,,,
w7372f01,514020,,survey-text,,4080,,"{""Q0"":""none"",""Q1"":""none""}",,,,,,,,,,,,,,,,,
wb7ac4c3,411631,,survey-text,,67826,,"{""Q0"":""You can stop once you've found the 48 because that's as high as you can go"",""Q1"":""Go with the plan with the lowest interest rate for the next 19 years""}",,,,,,,,,,,,,,,,,
wb7ac4c3,530488,,survey-text,,117850,,"{""Q0"":""Long term planning is more important than short term or intermediate term planning. The final destination has the greatest reward (or loss)."",""Q1"":""Choosing a career"",""Q2"":""It might cost money and time in the short term to go to school and effort to get established in the intermediate term but those are worth it if the long term reward is high""}",,,,,,,,,,,,,,,,,
wb7ac4c3,544958,,survey-text,,4827,,"{""Q0"":""no"",""Q1"":""no""}",,,,,,,,,,,,,,,,,
wbddc8d4,612329,,survey-text,,279637,,"{""Q0"":""I tried using a different flight path every time."",""Q1"":""I would try to explore all options first and calculate the greatest SAVINGS over the course of the mortgage.""}",,,,,,,,,,,,,,,,,
wbddc8d4,683305,,survey-text,,69965,,"{""Q0"":""I would tell them to try \""different paths\""."",""Q1"":""Looking for work."",""Q2"":""I have to navigate various \""paths/routes\"" in order to find the one which is most profitable to me.""}",,,,,,,,,,,,,,,,,
wbddc8d4,773906,,survey-text,,78778,,"{""Q0"":""I was confused by the instructions at first and it took me a couple of rounds to get the hang of it."",""Q1"":""I would be interested in finding out how other participants of this study did.""}",,,,,,,,,,,,,,,,,
waecabcf,530458,,survey-text,,108542,,"{""Q0"":""First click on the final destination airports instead of the intermediate ones."",""Q1"":""I would evaluate the amount I would be paying overall, instead of just looking at the interest and the monthly payments.""}",,,,,,,,,,,,,,,,,
waecabcf,772386,,survey-text,,240915,,"{""Q0"":""Determine your long term goals and then break that down into smaller, more manageable goals."",""Q1"":""Figuring out what kind of car to buy"",""Q2"":""I need to figure out first what are the main things I am looking for in a car and narrow down the decision from there.""}",,,,,,,,,,,,,,,,,
waecabcf,800797,,survey-text,,13767,,"{""Q0"":""No"",""Q1"":""None""}",,,,,,,,,,,,,,,,,
w93f26eb,1547170,,survey-text,,196150,,"{""Q0"":""Revealing the prices of the final destination gives the most insight as to a good flight plan as the final destinations had the most differential in profit."",""Q1"":""I would choose the mortgage loan with the best 19 year interest rate.""}",,,,,,,,,,,,,,,,,
w93f26eb,1649716,,survey-text,,101536,,"{""Q0"":""Long term planning is more important than short term planning."",""Q1"":""I could use this lesson in saving for retirement."",""Q2"":""It is better to allocate money to a 401K now then spend that money on short term gain at long term expense.""}",,,,,,,,,,,,,,,,,
w93f26eb,1671913,,survey-text,,7593,,"{""Q0"":""No"",""Q1"":""No""}",,,,,,,,,,,,,,,,,
w44519a3,565650,,survey-text,,135455,,"{""Q0"":""The best way to not spend money on too many clicks look at the end of the routes."",""Q1"":""I would choose the one that has the least interest rate so that more can go towards the principle. ""}",,,,,,,,,,,,,,,,,
w44519a3,676113,,survey-text,,109441,,"{""Q0"":""Always look at the end result to help you choose which path to take."",""Q1"":""When looking at a new job opportunity look at the end result to see what path to take."",""Q2"":""You have to look ahead to make your move and there will be some losses along with some gains along the way.""}",,,,,,,,,,,,,,,,,
w44519a3,698424,,survey-text,,8836,,"{""Q0"":""No"",""Q1"":""none""}",,,,,,,,,,,,,,,,,
w2793fb6,723909,,survey-text,,27009,,"{""Q0"":""Just click on one or two ends.  Try to remember where they were"",""Q1"":""I would go with the one that is always the same ""}",,,,,,,,,,,,,,,,,
w2793fb6,749492,,survey-text,,24569,,"{""Q0"":""I need to look at more options then one to make sure I am getting the best one"",""Q1"":""Looking for loans"",""Q2"":""looking for credit cards and loans""}",,,,,,,,,,,,,,,,,
w2793fb6,760171,,survey-text,,3903,,"{""Q0"":""no"",""Q1"":""no""}",,,,,,,,,,,,,,,,,
w2915cde,870867,,survey-text,,205570,,"{""Q0"":""I won't worry about the dollar being spent while clicking because chances are I will click a destination that will be higher than what I may have spent."",""Q1"":""I will choose the one with the lowest interests""}",,,,,,,,,,,,,,,,,
w2915cde,1276141,,survey-text,,404220,,"{""Q0"":""Make decisions based on what you know will benefit you for the long term if you even if you have to give a piece of your time and energy in the present."",""Q1"":""An example is for college, getting a degree will benefit me in the long run even if it not the easiest in the beginning."",""Q2"":""It is similar to the flight planning because even though I had to spend a dollar to get clicks/information for the destination, it benefitted me by doing so because I was able to get the return for small amount that I spent.""}",,,,,,,,,,,,,,,,,
w2915cde,1309946,,survey-text,,11059,,"{""Q0"":""No"",""Q1"":""No""}",,,,,,,,,,,,,,,,,
wfad7116,577267,,survey-text,,83146,,"{""Q0"":""Finding the destinations that offer the highest reward before beginning to fly."",""Q1"":""Based on which one would yield the least amount of interest in the end.""}",,,,,,,,,,,,,,,,,
wfad7116,676274,,survey-text,,97921,,"{""Q0"":""It's not just about the short-term gains."",""Q1"":""Everything. I need to think more long-term than short in the way I live so that consequences don't arise because I did something that was going to benefit me right away."",""Q2"":""A little similar. You can jump on things quickly without doing research or take your time and yield higher rewards in the end.""}",,,,,,,,,,,,,,,,,
wfad7116,697519,,survey-text,,9727,,"{""Q0"":""Nope!"",""Q1"":""""}",,,,,,,,,,,,,,,,,
w1aeb482,330990,,survey-text,,61071,,"{""Q0"":""I can focus on the end destination to primarily focus on the greatest potential increases and avoid the biggest losses."",""Q1"":""I would primarily focus on the one with the biggest return in the next 19 years.""}",,,,,,,,,,,,,,,,,
w1aeb482,393424,,survey-text,,61424,,"{""Q0"":""To take into account which portion of planning nets the biggest return."",""Q1"":""Putting away fore retirement where the amount may start small but grow larger and more valuable over time."",""Q2"":""Focus on the long term benefits rather than short term gains.""}",,,,,,,,,,,,,,,,,
w1aeb482,405951,,survey-text,,4744,,"{""Q0"":""No"",""Q1"":""No""}",,,,,,,,,,,,,,,,,
w41d93aa,544303,,survey-text,,236839,,"{""Q0"":""I can first find out the short term gains or losses of a path in choosing an initial path. After choosing that initial path, I will go down it to see what the gains or losses are. If the path is attractive, then I will not bother wasting money to click on the other paths and just go down that path. Only if the initial path is not attractive will I use clicks on the other paths to see if they are better."",""Q1"":""I will look at the whole picture and focus on choosing the mortgage loan that will be the most beneficial overall. I will want to choose the loan that will lead to me playing the least amount in the end.""}",,,,,,,,,,,,,,,,,
w41d93aa,843609,,survey-text,,298285,,"{""Q0"":""The art of Flight Planning teaches us to always plan carefully and look at the whole picture. Instead of focusing on short term consequences, we should look at what is gained or lost overall in the long term. Doing this will help us maximize our gains and avoid losses."",""Q1"":""One example would be choosing what restaurants to go to for lunch break at work."",""Q2"":""This situation is similar because there are several restaurants I can choose from. Each restaurant has different associated costs and nutritional benefits depending on the food. I need to choose and plan my lunch meals carefully in order to fit my budget while still satisfying my nutritional needs.""}",,,,,,,,,,,,,,,,,
w41d93aa,903215,,survey-text,,16016,,"{""Q0"":""None, the instructions were easy to understand."",""Q1"":""None""}",,,,,,,,,,,,,,,,,
wde6f8b6,585153,,survey-text,,154906,,"{""Q0"":""Learn from experience the best available end profit."",""Q1"":""Final payment compared to research costs.""}",,,,,,,,,,,,,,,,,
wde6f8b6,798711,,survey-text,,212521,,"{""Q0"":""It is better in the long run to do the research."",""Q1"":""In reviewing voting, it's better in the long run to do the research. Long term profit may be slightly less, but one will profit, not lose."",""Q2"":""The cost of research is worth it in the end.""}",,,,,,,,,,,,,,,,,
wde6f8b6,858671,,survey-text,,35264,,"{""Q0"":""No."",""Q1"":""No.""}",,,,,,,,,,,,,,,,,
w829eb47,875161,,survey-text,,137446,,"{""Q0"":""Click on the endpoint circles, which represent long-term planning. The gains and losses for the endpoint circles were much greater than the values in the short-term and mid-term steps."",""Q1"":""I would be sure to look at the long-term interest rates because that will greatly affect the amount you end up paying in total in the long term.""}",,,,,,,,,,,,,,,,,
w829eb47,1402878,,survey-text,,526690,,"{""Q0"":""Look farther down the road at the long-term consequences of your decisions because that's where the biggest losses or gains are to be made. Also, doing your research and having more information when you can is very useful and leads to better outcomes."",""Q1"":""I divert more money into my retirement account. In the short term, I have less money to live on in the short term, but in the longer term I'll hopefully have a more due to the magic of the market and compound interest."",""Q2"":""Both involve looking farther down the road and having some information about what outcomes of the different paths might be.""}",,,,,,,,,,,,,,,,,
w829eb47,1518479,,survey-text,,108964,,"{""Q0"":""When there was a time penalty, I wish there was a countdown that told you how long until the the next step, because I wasn't sure if I was supposed to do anything the first time that happened and I thought maybe the game had frozen."",""Q1"":""Add countdown and instructions to wait so you know the game is still working.""}",,,,,,,,,,,,,,,,,
w38b044a,373501,,survey-text,,82091,,"{""Q0"":""Connections are important. If a stopover is far more of a loss than you're willing to take, then exploring other routes is a good idea."",""Q1"":""I would have to look at how long I planned on staying in the area.""}",,,,,,,,,,,,,,,,,
w38b044a,468167,,survey-text,,93646,,"{""Q0"":""Try not to look at a step backward as insurmountable, and instead see if it leads you to your desired destination even if difficult."",""Q1"":""University work and my class schedule."",""Q2"":""When it comes to university, you don't always get to take classes you're interested in right off the bat. You have to take general education requirements before moving on towards your major.""}",,,,,,,,,,,,,,,,,
w38b044a,488601,,survey-text,,10181,,"{""Q0"":""No."",""Q1"":""None.""}",,,,,,,,,,,,,,,,,
w6d0d217,1251157,,survey-text,,154375,,"{""Q0"":""I'd plan for the long term goals."",""Q1"":""I'd choose the one with lowest interest rate in the next 19 years.""}",,,,,,,,,,,,,,,,,
w6d0d217,1417322,,survey-text,,165149,,"{""Q0"":""Look for the highest benefit you can achieve in the long run."",""Q1"":""I'd say how I invest my money would be an good example."",""Q2"":""I'd invest in assets that would bring me the highest profit in the long run.""}",,,,,,,,,,,,,,,,,
w6d0d217,1457788,,survey-text,,17137,,"{""Q0"":""No."",""Q1"":""Great study.""}",,,,,,,,,,,,,,,,,
wcf6b956,555107,,survey-text,,89228,,"{""Q0"":""I can click on only the destinations rather than the stops on the way."",""Q1"":""The mortgage with the lowest interest rate in the long run (19 years) would be the most important. ""}",,,,,,,,,,,,,,,,,
wcf6b956,696572,,survey-text,,140448,,"{""Q0"":""Look at the big picture rather than all the small things that happen along the way."",""Q1"":""When choosing how much money of my stimulus check to put into savings, I decided to save more rather than spending."",""Q2"":""I had to think about what I needed in the long run vs what I wanted currently. ""}",,,,,,,,,,,,,,,,,
wcf6b956,710136,,survey-text,,3170,,"{""Q0"":"""",""Q1"":""""}",,,,,,,,,,,,,,,,,
wcfde54b,794714,,survey-text,,226622,,"{""Q0"":""I can find a good flight plan after taking decision perfectly."",""Q1"":""I would choose these type of loans after talking full knowledge about flight planning and many other necessary steps also.""}",,,,,,,,,,,,,,,,,
wcfde54b,992300,,survey-text,,196526,,"{""Q0"":""he aware me about quite decision"",""Q1"":""to establish a man for his family and future"",""Q2"":""the only way is decision making very quite""}",,,,,,,,,,,,,,,,,
wcfde54b,1036363,,survey-text,,28803,,"{""Q0"":""no"",""Q1"":""this study was just amazing. i enjoyed it""}",,,,,,,,,,,,,,,,,
w63876de,581913,,survey-text,,109639,,"{""Q0"":""I found the timer too confusing to really consider that, I just clicked where it was least likely to come up with a timer saying I had to wait a certain amount of time before the next move because I found it inconsistent and confusing and tried to avoid it. "",""Q1"":""I didn't really see flight planning as a good metaphor for anything so I just would go based on which had the best interest rate. ""}",,,,,,,,,,,,,,,,,
w63876de,673262,,survey-text,,90341,,"{""Q0"":""I would tell them to try clicking in the same spots because that seems to make the prompt for the timer happen the fewest. "",""Q1"":""When I'm cooking something according to a recipe and I find that the instructions don't really follow well with my setup so I deviate in order to make the best meal possible. "",""Q2"":""It's not really that similar. ""}",,,,,,,,,,,,,,,,,
w63876de,744001,,survey-text,,58764,,"{""Q0"":""I didn't understand why it kept saying I hadn't clicked right or I needed to wait a certain amount of time and it had no countdown timer, either. I didn't recall that stuff being part of the instructions and it provided no explanation for why it gave those prompts so I didn't find them helpful, just irritating. "",""Q1"":""No, thank you.""}",,,,,,,,,,,,,,,,,
w06dda84,586757,,survey-text,,55830,,"{""Q0"":""I try to check the destinations before the routes."",""Q1"":""Well, I'm not sure""}",,,,,,,,,,,,,,,,,
w06dda84,706843,,survey-text,,119047,,"{""Q0"":""I'll tell em to foresee the results of their decisions. "",""Q1"":""My real estate investments."",""Q2"":""Foresight of end points.""}",,,,,,,,,,,,,,,,,
w06dda84,722596,,survey-text,,11371,,"{""Q0"":""Nope"",""Q1"":""Nope""}",,,,,,,,,,,,,,,,,
w693b738,1048609,,survey-text,,205164,,"{""Q0"":""The big rewards seem to be on the outer terminating points.  Part of not spending too much on clicks is getting lucky with the first guesses."",""Q1"":""I would only choose the 19 year mortgage, provided the interest rate was reasonable.  I do not want a variable interest rate, at this point I desire stability and the known.""}",,,,,,,,,,,,,,,,,
w693b738,1229758,,survey-text,,180140,,"{""Q0"":""Pick a point to fly to.  You may have to change your plan depending on the cost.  Even with a different destination than originally planned your trip will be an adventure."",""Q1"":""Planning too hard for one outcome can lead to disappointment.  The flight plan method makes it clear that a plan may change and that is desirable."",""Q2"":""A player could be disappointed in spending too much on clicks and not moving forward with the flight plan.  There is a point of diminishing returns if you click too much to route the perfect plan.""}",,,,,,,,,,,,,,,,,
w693b738,1262899,,survey-text,,19044,,"{""Q0"":"""",""Q1"":""""}",,,,,,,,,,,,,,,,,
w1ba4d2a,458772,,survey-text,,88349,,"{""Q0"":""I could look at the values of the final destination first because a +48 destination route will always be better than one which isn't because it is worth more."",""Q1"":""Based on Flight Planning, I would choose based on the next 19 years.""}",,,,,,,,,,,,,,,,,
w1ba4d2a,588755,,survey-text,,128955,,"{""Q0"":""Always keep the long term goal in mind when making decisions."",""Q1"":""Going through college"",""Q2"":""I did not think of the long term goal from going through college and only thought of the short term (passing my classes). I ended up switching majors after I got my bachelors.""}",,,,,,,,,,,,,,,,,
w1ba4d2a,611397,,survey-text,,8629,,"{""Q0"":""no"",""Q1"":""none""}",,,,,,,,,,,,,,,,,
w55bcaca,580844,,survey-text,,281012,,"{""Q0"":""I can use my own strategy."",""Q1"":""I would choose the one which would be beneficial for me.""}",,,,,,,,,,,,,,,,,
w905a6a8,473678,,survey-text,,139285,,"{""Q0"":""I focused on finding the highest value of the last stop to choose where the plane should go. I didn't focus on the in between numbers between the start and end points."",""Q1"":""I would choose the best long term goal, which is the lowest interest rate for the next 19 years.""}",,,,,,,,,,,,,,,,,
w905a6a8,600897,,survey-text,,126118,,"{""Q0"":""I learned that the smaller in between steps of life aren't as important to me as the end goal. I don't need to focus or be so hard on myself for those smaller steps."",""Q1"":""This would work well for my career goal."",""Q2"":""This is similar because the path to get to my career requires many smaller steps, like tests and school, to get there.""}",,,,,,,,,,,,,,,,,
w905a6a8,630750,,survey-text,,19209,,"{""Q0"":""Nothing was difficult to understand."",""Q1"":""No.""}",,,,,,,,,,,,,,,,,
w5c09935,613495,,survey-text,,71451,,"{""Q0"":""I think that I did what was optimal by clicking on the points at the end of the path. The short term hit was worth it to find the most profitable path."",""Q1"":""I would choose the loan that cost the least over the entire course of the loan.""}",,,,,,,,,,,,,,,,,
w5c09935,703473,,survey-text,,88970,,"{""Q0"":""It is better to pursue long term goals over short term gains."",""Q1"":""Saving up for a good downpayment on a house rather than paying PMI and getting a house sooner."",""Q2"":""Choosing the best long term strategy is the most profitable.""}",,,,,,,,,,,,,,,,,
w5c09935,833645,,survey-text,,117121,,"{""Q0"":""Nope!"",""Q1"":""Yes - your suggestion about clicking until the $48 dollar spot is visible is unnecessary if all the other spots are already revealed (the $48 spot can be determined by process of deduction). Following your advice would lead to $1 less profit! :-)""}",,,,,,,,,,,,,,,,,
wb264739,1115344,,survey-text,,304129,,"{""Q0"":""Try to change my flight decisions and try to make a correct decision in each game, it is preferable to choose the final destinations in each flight line"",""Q1"":""I think that the first month loan would be the option, since I would be making short-term decisions that could be good agreement for now and thus trying to choose the best for my life""}",,,,,,,,,,,,,,,,,
wb264739,1578167,,survey-text,,461813,,"{""Q0"":""According to my decisions, whether in the short, medium or long term, I could improve my life or have some consequences, it all depends on the path I want to take"",""Q1"":""I think that the way I invest my money to obtain more future earnings and thus improve my lifestyle, can sometimes go well or badly"",""Q2"":""That depending on the decisions I make, I could go well in life or it could have consequences, since it has some risk and it all depends on the way I choose to use my money""}",,,,,,,,,,,,,,,,,
wb264739,1619931,,survey-text,,18148,,"{""Q0"":""None"",""Q1"":""""}",,,,,,,,,,,,,,,,,
we768dde,527937,,survey-text,,95827,,"{""Q0"":""click the furthest destinations first."",""Q1"":""look at the interest rates of the last 19 years.""}",,,,,,,,,,,,,,,,,
we768dde,648086,,survey-text,,119098,,"{""Q0"":""try to think ahead or of long term effects"",""Q1"":""buying a car, I would try to think how the car payment would effect my life months down the road"",""Q2"":""I would choose the car with the lowest payment because I can't foresee all possible outcomes""}",,,,,,,,,,,,,,,,,
we768dde,668396,,survey-text,,7665,,"{""Q0"":""no"",""Q1"":""no""}",,,,,,,,,,,,,,,,,
w65bc127,927437,,survey-text,,239938,,"{""Q0"":""learning more for more information"",""Q1"":""the next 19 years""}",,,,,,,,,,,,,,,,,
w65bc127,1102573,,survey-text,,174109,,"{""Q0"":""it's the final goal that matters in the end. "",""Q1"":""where to live, when to purchase a house, etc."",""Q2"":""getting a mortgage for owing a house for a long period""}",,,,,,,,,,,,,,,,,
w65bc127,1118012,,survey-text,,5092,,"{""Q0"":""no"",""Q1"":""no""}",,,,,,,,,,,,,,,,,
