wid,stimulus,button_pressed,time_elapsed,rt,trial_type,view_history,questions,responses,correct,queries,block,actions,delays,rewards,prs,score,action_times,trial_id,trial_time,path,simulation_mode,state_rewards,trial_index,key_press
w383bb6f,,,1099955,48010,survey-text,,,"{""Q0"":""I have learned different thing which was interesting.""}",,,,,,,,,,,,,,,,
w8af2d3c,,,263584,24015,survey-text,,,"{""Q0"":""I have learned that I need to plan my route before I move""}",,,,,,,,,,,,,,,,
w3861fef,,,298290,36038,survey-text,,,"{""Q0"":""Clicking on outermost nodes first, and then checking one node prior to those if some are equally high. ""}",,,,,,,,,,,,,,,,
wdb29b3e,,,725218,68375,survey-text,,,"{""Q0"":""Well it took me awhile to understand the instructions.  Once I got the hang of it then I would just keep checking the circles until I got to 48""}",,,,,,,,,,,,,,,,
w7628afc,,,405327,41247,survey-text,,,"{""Q0"":""I was going blindly the first couple of times and do well, but then I ended up losing money.  This made me start to click on some of the nodes before continuing.""}",,,,,,,,,,,,,,,,
wde69858,,,1781802,15570,survey-text,,,"{""Q0"":""I am clicking the right bubbles. ""}",,,,,,,,,,,,,,,,
w01669a7,,,494695,56755,survey-text,,,"{""Q0"":""I feel like I should be doing something differently but I'm not sure what it is. I'm not clear on why I kept getting delay penalties and messages that I should have gone a different way.""}",,,,,,,,,,,,,,,,
w4f54495,,,411725,26341,survey-text,,,"{""Q0"":""Start by checking the value of the final nodes first""}",,,,,,,,,,,,,,,,
w5957bc7,,,689182,23079,survey-text,,,"{""Q0"":""Check the outer nodes until I find the high value""}",,,,,,,,,,,,,,,,
wcacd23b,,,246534,15778,survey-text,,,"{""Q0"":""Revealing more to try to avoid delays""}",,,,,,,,,,,,,,,,
w909b325,,,217528,12099,survey-text,,,"{""Q0"":""Not clicking all the boxes. ""}",,,,,,,,,,,,,,,,
w6c8a977,,,1301044,118525,survey-text,,,"{""Q0"":""Yes. I learned to find the destination node with the most positive value but to also look at the path and the numbers in those nodes."",""Q1"":""44"",""Q2"":""Male""}",,,,,,,,,,,,,,,,
wc56f217,,,395497,29580,survey-text,,,"{""Q0"":""I started accepting the green's after a certain amount."",""Q1"":""31"",""Q2"":""Female""}",,,,,,,,,,,,,,,,
w2f7c465,,,454473,36848,survey-text,,,"{""Q0"":""choosing the path where i can earn more""}",,,,,,,,,,,,,,,,
we404ecf,,,349918,35912,survey-text,,,"{""Q0"":""It only costs $1 to look at a node, so look at them. The further nodes tell you the highest output (about) so look at those first""}",,,,,,,,,,,,,,,,
wd0081d4,,,181164,13197,survey-text,,,"{""Q0"":""I learned to click nodes efficiently to maximize my earnings""}",,,,,,,,,,,,,,,,
w553c4fe,,,265545,12262,survey-text,,,"{""Q0"":""No"",""Q1"":""21"",""Q2"":""male""}",,,,,,,,,,,,,,,,
w27b8993,,,353946,44110,survey-text,,,"{""Q0"":""I tried to decrease my amount of clicks and just go for a positive value near 50."",""Q1"":""28"",""Q2"":""Male""}",,,,,,,,,,,,,,,,
w2224a1f,,,722227,164723,survey-text,,,"{""Q0"":""Possibly?? I tried to not click too many nodes--about one per grouping--to get an idea of how much I could get without using up all that money from clicking since that can add up quickly. If I found a really high number, I stopped clicking immediately and went for that one."",""Q1"":""26"",""Q2"":""Female""}",,,,,,,,,,,,,,,,
w822dbd6,,,543751,40422,survey-text,,,"{""Q0"":""I'm more efficient in trying to find the most valuable route.""}",,,,,,,,,,,,,,,,
w7e54ba1,,,408129,32157,survey-text,,,"{""Q0"":""I learned to move the spider towards the most positive numbers and towards the largest numbers.""}",,,,,,,,,,,,,,,,
we2d1dfd,,,367811,22085,survey-text,,,"{""Q0"":""I learned to look far ahead for benefits in taking a certain route"",""Q1"":""34"",""Q2"":""Female""}",,,,,,,,,,,,,,,,
wde70d7c,,,314872,50131,survey-text,,,"{""Q0"":""clicking on all terminal nodes until i  find a 48 was the plan. sometimes the trainer would inform me i went the wrong way, meaning sometimes multiple nodes contain 48, so i should click all""}",,,,,,,,,,,,,,,,
w87ba793,,,356503,42115,survey-text,,,"{""Q0"":""I click the nodes at the very ends of the web to check how much the finishing price is.""}",,,,,,,,,,,,,,,,
w95dd100,,,369884,59650,survey-text,,,"{""Q0"":""I learned that only one of the first three circles will be \""in the green\"" so there is no point paying $1 for the other two if I have clicked on that one first.""}",,,,,,,,,,,,,,,,
wb19c9b2,,,434075,45093,survey-text,,,"{""Q0"":""It wasn't clear in the beginning in the instructions that you HAD to find the highest positive value. Once It was implied I searched for the highest value. ""}",,,,,,,,,,,,,,,,
w9b1fd96,,,399556,127080,survey-text,,,"{""Q0"":""...no. I don't think I'm very good at this game at all. Now that I think about it, was I supposed to be able to tell the value of ANY node for $3 before departing from my origin, or just the ones that were one step away from me? For some reason I assumed it was only the ones next to me, but if it was the end-of-route nodes too, that would've been pretty helpful. \n\nIn the last few rounds of this session, I decided it wasn't worth spending the 6-9 dollars to determine which of the three branches to take since I was losing a lot each round anyway."",""Q1"":""22"",""Q2"":""Female""}",,,,,,,,,,,,,,,,
wcc818a2,,,379389,43609,survey-text,,,"{""Q0"":""This time I realized it wasn't worth it to check every destination. I ended up just clicking until I found a good number."",""Q1"":""23"",""Q2"":""Male""}",,,,,,,,,,,,,,,,
wa51793d,,,422254,62827,survey-text,,,"{""Q0"":""I learned something about following the beginning arrows but I struggled to figure out how to decide which direction to go from there.  I tried to learn patterns but I didn't really get that worked out.  If the amounts are to be believed, I went backwards in learning."",""Q1"":""52"",""Q2"":""female""}",,,,,,,,,,,,,,,,
w95dd100,,,486946,76640,survey-text,,,"{""Q0"":""I started clicking on a few of the end destinations to try and find the best one, or at least eliminate some of the worst ones? And I believe that helped. "",""Q1"":""38"",""Q2"":""female""}",,,,,,,,,,,,,,,,
wa7fe7b9,,,370630,47131,survey-text,,,"{""Q0"":""I made my strategy, not to spend too much and go for the first one that makes me profit"",""Q1"":""40"",""Q2"":""Male""}",,,,,,,,,,,,,,,,
wbf48387,,,347787,9539,survey-text,,,"{""Q0"":""not really"",""Q1"":""23"",""Q2"":""Male""}",,,,,,,,,,,,,,,,
wb1d44a5,,,446906,67107,survey-text,,,"{""Q0"":""I stopped trying to find the highest possible finishing spot and focused on any higher-value spot that should at least put me even. I was spending too much money revealing final stops in the initial rounds to the extent that it was costing me money even if I did find a better value path."",""Q1"":""38"",""Q2"":""Male""}",,,,,,,,,,,,,,,,
w121b9c1,,,379516,81024,survey-text,,,"{""Q0"":""With more ending nodes and a higher cost to check nodes, it made more sense to simply accept the first relatively good ending node, as opposed to continuing to look for the most valuable."",""Q1"":""22"",""Q2"":""Cis Male""}",,,,,,,,,,,,,,,,
w2ce5269,,,323669,16428,survey-text,,,"{""Q0"":""Click arrows on the end first"",""Q1"":""19"",""Q2"":""woman""}",,,,,,,,,,,,,,,,
wba5cfab,,,284499,9520,survey-text,,,"{""Q0"":""no"",""Q1"":""21"",""Q2"":""Female""}",,,,,,,,,,,,,,,,
w1f49a65,,,417139,78686,survey-text,,,"{""Q0"":""I learned that it was smarter to just take a lower profit (like $20), rather than to spend $3 over and over to determine every outcome."",""Q1"":""23"",""Q2"":""Woman""}",,,,,,,,,,,,,,,,
w1a8d4d0,,,507536,122372,survey-text,,,"{""Q0"":""I realize now, TOO LATE, on day 2, that I should have clicked on the end nodes to reveal the end result, but to go with the first node that SEEMED high enough to substantiate the loss it took/cost me to reveal the answer. "",""Q1"":""47"",""Q2"":""female""}",,,,,,,,,,,,,,,,
w4f70e59,,,303836,19613,survey-text,,,"{""Q0"":""Not really"",""Q1"":""23"",""Q2"":""female""}",,,,,,,,,,,,,,,,
wffa22e4,,,290278,26998,survey-text,,,"{""Q0"":""I learned to better click around and strategy to get the highest amount of points"",""Q1"":""19"",""Q2"":""male""}",,,,,,,,,,,,,,,,
wcd17cba,,,271886,13518,survey-text,,,"{""Q0"":""I did not."",""Q1"":""27"",""Q2"":""Male""}",,,,,,,,,,,,,,,,
w61e9b7a,,,599482,130775,survey-text,,,"{""Q0"":""I don't think I had a great strategy. From beginning to end I just tried to use the node inspector to my advantage, but I don't think I did very well!""}",,,,,,,,,,,,,,,,
wf76281c,,,906549,24665,survey-text,,,"{""Q0"":""I didn't feel like I got any better so I can't say for sure.""}",,,,,,,,,,,,,,,,
wb82f354,,,621501,29307,survey-text,,,"{""Q0"":""I am not sure of anything learned.  I have done nothing differently.""}",,,,,,,,,,,,,,,,
w4d3ace0,,,445891,25325,survey-text,,,"{""Q0"":""Unfortunately, no, I did not."",""Q1"":""34"",""Q2"":""female""}",,,,,,,,,,,,,,,,
wf36627e,,,505913,40815,survey-text,,,"{""Q0"":""I just looked for positives at the end of the routes, because those values were typically worth more."",""Q1"":""29"",""Q2"":""Male""}",,,,,,,,,,,,,,,,
w74c6f79,,,520555,120310,survey-text,,,"{""Q0"":""At first I was revealing the nodes because I thought that would help me but I realized it was making me lose more money. Due to the random nature of the game it seems like it's better for me to just make a move blindly instead of revealing everything.""}",,,,,,,,,,,,,,,,
wb4732b3,,,412107,81602,survey-text,,,"{""Q0"":""There seemed to be more nodes in this game compared to the other one, so as soon as I found an end node that was high enough (usually > $35) I just went for it because 1) it was expensive to reveal node values and 2) the intermediary nodes seemed to be way smaller gains/losses than end nodes"",""Q1"":""27"",""Q2"":""Woman""}",,,,,,,,,,,,,,,,
wb5542cf,,,379048,45722,survey-text,,,"{""Q0"":""I did not really learn anything, and do not think I'll do anything differently.""}",,,,,,,,,,,,,,,,
w8849c6d,,,524951,22009,survey-text,,,"{""Q0"":""no"",""Q1"":""34"",""Q2"":""female""}",,,,,,,,,,,,,,,,
wba5cfab,,,277488,22132,survey-text,,,"{""Q0"":""I click on all the grey circles around me to see what my options are and which path I want to take.""}",,,,,,,,,,,,,,,,
w6a5935c,,,262932,50397,survey-text,,,"{""Q0"":""I focused on the end of the tree rather than waste money on all of it, as the high values were what really mattered. If I found the $48, then nothing else mattered as getting there gave me a maximum profit. ""}",,,,,,,,,,,,,,,,
w1bcf0d4,,,429116,26232,survey-text,,,"{""Q0"":""I've learned to only click on certain nodes to find where the cash is""}",,,,,,,,,,,,,,,,
w6f2000f,,,788659,40847,survey-text,,,"{""Q0"":""Yes I have learned how to plan better since the first part of the study. It is more important how you end the journey rather than how you start it."",""Q1"":""33"",""Q2"":""Male""}",,,,,,,,,,,,,,,,
wa655ea6,,,569855,44714,survey-text,,,"{""Q0"":""I figured out that the end nodes usually had the highest values and the earlier nodes were usually low value so they didn't really matter when it came to getting the highest amount of profit"",""Q1"":""28"",""Q2"":""Female""}",,,,,,,,,,,,,,,,
w3c3e725,,,482902,86498,survey-text,,,"{""Q0"":""First few rounds I used the same strategy as yesterday. Clicking on all the spaces. But I ended up losing money. So I changed strategy to just clicking on a few of the spaces. And I ended up making a small profit."",""Q1"":""26"",""Q2"":""Male""}",,,,,,,,,,,,,,,,
weefa095,,,386496,46661,survey-text,,,"{""Q0"":""not really, it still felt very random where the money was, so I just clicked until I found a high number. "",""Q1"":""28"",""Q2"":""Female""}",,,,,,,,,,,,,,,,
w711bb52,,,257843,21354,survey-text,,,"{""Q0"":""usually the money wouldnt be in same spot"",""Q1"":""24"",""Q2"":""Male""}",,,,,,,,,,,,,,,,
w76e01de,,,299365,20809,survey-text,,,"{""Q0"":""To not guess as much."",""Q1"":""24"",""Q2"":""Male""}",,,,,,,,,,,,,,,,
w3013d26,,,401420,48074,survey-text,,,"{""Q0"":""I learned to click on the furthest node from the spider and looked for the highest number. Once the highest number was found, I had the spider take that route.""}",,,,,,,,,,,,,,,,
wadceaf5,,,432963,70265,survey-text,,,"{""Q0"":""Clicking only the furthest circles and stopping when I find +48\nIf multiple +24, then check intermediate values""}",,,,,,,,,,,,,,,,
wfaaa4c5,,,506219,92063,survey-text,,,"{""Q0"":""I have learned to maximize my earnings its best to click on the circles before going in blind to lose money. Its a great strategy rather than losing all of your money at once, so having the patience could yield greater results!""}",,,,,,,,,,,,,,,,
wa5f061a,,,367129,75633,survey-text,,,"{""Q0"":""In the last game I think that you weren't allowed to make moves that weren't ideal, and in this one you were. So in this game, I went with the knoweldge that the destination number is likely to be the biggest number - and if it's positive, you will probably come out positive, and if negative, you'll probably lose money. "",""Q1"":""40"",""Q2"":""woman""}",,,,,,,,,,,,,,,,
wb0d67f3,,,289590,25763,survey-text,,,"{""Q0"":""Being more open to click on the nodes--looking at the last nodes shows the highest/lowest values possible""}",,,,,,,,,,,,,,,,
wa77d5d7,,,487795,22399,survey-text,,,"{""Q0"":""I learned to click every node so i know exactly how to move.""}",,,,,,,,,,,,,,,,
w4a8429b,,,331017,53155,survey-text,,,"{""Q0"":""I learned to optimize the amount of nodes that I reveal while still gaining the largest amount of $.""}",,,,,,,,,,,,,,,,
w2ce5269,,,539970,38727,survey-text,,,"{""Q0"":""I click all of the buttons next to the first button, as well as all of the buttons at the end of each branch. Instead of just clicking all buttons from one group.""}",,,,,,,,,,,,,,,,
w55b7066,,,573562,95693,survey-text,,,"{""Q0"":""At first, I thought checking the tiles next to me was considered best, but checking the four nodes at the end was. Once a 48 is found, then it makes sense to move in that direction since that's the max value one can get from a node.""}",,,,,,,,,,,,,,,,
w3f028f3,,,742328,12908,survey-text,,,"{""Q0"":""You have to spend money to make money""}",,,,,,,,,,,,,,,,
waa35328,,,377624,42962,survey-text,,,"{""Q0"":""Prioritizing and minimizing the amount of nodes I click""}",,,,,,,,,,,,,,,,
wc1b79e1,,,403005,12345,survey-text,,,"{""Q0"":""No"",""Q1"":""25"",""Q2"":""Female""}",,,,,,,,,,,,,,,,
wbf48387,,,256396,40024,survey-text,,,"{""Q0"":""not being excessively careful and going for the nodes that have the max green value of 48 if possible. the cost of checking all the nodes is notoptimal""}",,,,,,,,,,,,,,,,
w3104315,,,349320,44317,survey-text,,,"{""Q0"":""I learned that once I found a decent end node, I needed to just take it instead of shopping around. The $3 penalty was much more impactful than the $1 yesterday"",""Q1"":""32"",""Q2"":""Female""}",,,,,,,,,,,,,,,,
wde69858,,,376616,47108,survey-text,,,"{""Q0"":""My strategy was to only uncover a limited amount of destinations to mitigate loss. "",""Q1"":""30"",""Q2"":""Female""}",,,,,,,,,,,,,,,,
w0604ccd,,,467878,131035,survey-text,,,"{""Q0"":""Price increases from initial node outward. Node values are not reflected symmetrically placed on map. Value range does not guarantee a 48 is present on map. ""}",,,,,,,,,,,,,,,,
wa029bc1,,,340252,39294,survey-text,,,"{""Q0"":""I tried to make sure that I was at least going for a decent ending amount of money before moving."",""Q1"":""32"",""Q2"":""male""}",,,,,,,,,,,,,,,,
w2224a1f,,,496041,159364,survey-text,,,"{""Q0"":""In the first round, I was kind of playing randomly. By the second round, I was clicking each node until I found the 48 and then went to find it. Then when there were rounds that only included -48 or 24 in the nodes, I realized I should click the middle nodes to see what had a greater payout in the path, though I did mess up during a round after I started doing that.""}",,,,,,,,,,,,,,,,
wb2c69c8,,,288572,40710,survey-text,,,"{""Q0"":""I realize it's best to always try checking the prices of the first surrounding nodes, but I will only try that method if I have some cash to burn. I try to pick the option that will net me the least loss of money""}",,,,,,,,,,,,,,,,
wfd168a1,,,395893,48675,survey-text,,,"{""Q0"":""I actually went in with the plan to just click the nodes until I found the best path because the reward is greater than the cost.""}",,,,,,,,,,,,,,,,
wadc9d05,,,645450,21917,survey-text,,,"{""Q0"":""I clicked on highlighted before they were highlighted""}",,,,,,,,,,,,,,,,
w131bb1f,,,424013,27293,survey-text,,,"{""Q0"":""find a high value airport then go there. don't waste money checking all of them"",""Q1"":""20"",""Q2"":""female""}",,,,,,,,,,,,,,,,
wb4732b3,,,364599,46007,survey-text,,,"{""Q0"":""I started clicking on the end nodes first, because if there was only 1 $48, then it seemed like there was no need to click on any intermediary nodes because it was always a better deal.""}",,,,,,,,,,,,,,,,
w164f313,,,378488,91212,survey-text,,,"{""Q0"":""Going at random has its disadvantages when they are so many routes, so you have to know when to just stop and go with the highest paying end."",""Q1"":""23"",""Q2"":""Female""}",,,,,,,,,,,,,,,,
wfa98644,,,462072,11881,survey-text,,,"{""Q0"":""Just trying random things""}",,,,,,,,,,,,,,,,
w9089f6a,,,284622,31936,survey-text,,,"{""Q0"":""I think the strategy of searching for the $48 node is time-efficient without having to assess every single endpoint.""}",,,,,,,,,,,,,,,,
w98bf507,,,366338,18117,survey-text,,,"{""Q0"":""I focused on the outermost nodes. "",""Q1"":""22"",""Q2"":""Female""}",,,,,,,,,,,,,,,,
w9966dae,,,933886,26333,survey-text,,,"{""Q0"":""I sort of learned to minimize how many nodes I needed to reveal the best path.""}",,,,,,,,,,,,,,,,
w7892c83,,,420111,31693,survey-text,,,"{""Q0"":""I learned that the end nodes have the highest value so you should click all of those and go toward the highest value one.""}",,,,,,,,,,,,,,,,
w2d09e07,,,326110,40853,survey-text,,,"{""Q0"":""It seemed like clicking to reveal a space was more of a waste of money because after that first space, you could lose on the next so I started conserving money and just guessing."",""Q1"":""34"",""Q2"":""Male""}",,,,,,,,,,,,,,,,
we2d1dfd,,,284476,20671,survey-text,,,"{""Q0"":""clicking through a full tree to make sure I landed on an optimal amount of cash""}",,,,,,,,,,,,,,,,
w6b1b7c5,,,286958,7645,survey-text,,,"{""Q0"":""Find the 48""}",,,,,,,,,,,,,,,,
wc60255e,,,362853,23650,survey-text,,,"{""Q0"":""Learn when to cut my losses. If I find a decent final payout early then start down that path."",""Q1"":""36"",""Q2"":""Male""}",,,,,,,,,,,,,,,,
w9fdf69d,,,415984,47264,survey-text,,,"{""Q0"":""I tried to limit my checks to not lose the money, but sometimes there were only negatives available. A few times I just took the shot and moved to the unknown. It was pretty fun though and I think it was a cool study."",""Q1"":""34"",""Q2"":""Male""}",,,,,,,,,,,,,,,,
wc56f217,,,439740,21924,survey-text,,,"{""Q0"":""I learned that I just needed to identify where the 48 was""}",,,,,,,,,,,,,,,,
w4fdfaa8,,,312094,37058,survey-text,,,"{""Q0"":""If I saw a +48, I just went towards it.  I tried just revealing the distant corners and making a decision based on them instead of revealing all.""}",,,,,,,,,,,,,,,,
wb0048d6,,,322089,56329,survey-text,,,"{""Q0"":""At first I was testing the first node I could move to, but I learned those always have a small number. The big number that matters is at the end of the node. Knowing the nodes in between doesn't matter.""}",,,,,,,,,,,,,,,,
wf69e14e,,,454145,36517,survey-text,,,"{""Q0"":""I would select the final destinations to reveal and see which one had the highest ending position/"",""Q1"":""23"",""Q2"":""female""}",,,,,,,,,,,,,,,,
w60c57f3,,,377717,40325,survey-text,,,"{""Q0"":""Working backwards from an end node is much more efficient than working from the spider's original position.""}",,,,,,,,,,,,,,,,
wa7fe7b9,,,426611,29921,survey-text,,,"{""Q0"":""look at all the possibilities, and choose the best""}",,,,,,,,,,,,,,,,
w05c03dc,,,418552,35109,survey-text,,,"{""Q0"":""You can just click on the end result nodes to see which ones have the highest dollar value because the other nodes had lower absolute values.""}",,,,,,,,,,,,,,,,
wd316fd3,,,295307,12997,survey-text,,,"{""Q0"":""No"",""Q1"":""25"",""Q2"":""female""}",,,,,,,,,,,,,,,,
w801a8f0,,,363975,46625,survey-text,,,"{""Q0"":""I learned that it's better to take a smaller amount of money than gamble and try to find a node with more money"",""Q1"":""23"",""Q2"":""Male""}",,,,,,,,,,,,,,,,
wd3fa27d,,,487698,50354,survey-text,,,"{""Q0"":""Somewhat. It was better to just pursue profit with less of a chance of loss than spending more trying to achieve the highest outcome."",""Q1"":""38"",""Q2"":""Male""}",,,,,,,,,,,,,,,,
w01669a7,,,377889,45688,survey-text,,,"{""Q0"":""I learned that it's better to spend a few points checking a spot several moves away so I can tell if going in that direction is a good investment or not."",""Q1"":""34"",""Q2"":""Female""}",,,,,,,,,,,,,,,,
wd16177d,,,522055,51070,survey-text,,,"{""Q0"":""Now I understand you had to find the positive amounts then move there, not just pick a random spot.""}",,,,,,,,,,,,,,,,
we547607,,,301892,12922,survey-text,,,"{""Q0"":""not really"",""Q1"":""31"",""Q2"":""female""}",,,,,,,,,,,,,,,,
w8278843,,,423936,29596,survey-text,,,"{""Q0"":""I am spending the money to just uncover all the Nodes so I know which is the best route since the money made will make it up anyway.""}",,,,,,,,,,,,,,,,
w64d60fc,,,424363,16314,survey-text,,,"{""Q0"":""that not using the cheat gets me punished sometimes""}",,,,,,,,,,,,,,,,
w5f4991c,,,340586,30454,survey-text,,,"{""Q0"":""I learnt to look at the final outcome but also not to dither too much"",""Q1"":""22"",""Q2"":""Female""}",,,,,,,,,,,,,,,,
w72a67a8,,,466541,39883,survey-text,,,"{""Q0"":""I tried to check the end of the routes as they tended to have the larger rewards/penalties."",""Q1"":""36"",""Q2"":""Male""}",,,,,,,,,,,,,,,,
wdb29b3e,,,695752,132843,survey-text,,,"{""Q0"":""Yes.  I made the wrong move 2 or 3 times.  I started the plane upward instead of the right or left because the circle was above the plane.  Even though it was to may right or left the above took precedent on my first incorrect move. "",""Q1"":""70"",""Q2"":""male""}",,,,,,,,,,,,,,,,
w3b97ab5,,,223337,30266,survey-text,,,"{""Q0"":""I am more liberal with my node revealer clicks, as the money I am making offsets the cost.""}",,,,,,,,,,,,,,,,
w8a8ab24,,,363046,62554,survey-text,,,"{""Q0"":""Clicking on the end nobes knowing the value of the two negatives in the path of getting there would not be more than 48.""}",,,,,,,,,,,,,,,,
w1a8d4d0,,,804459,86593,survey-text,,,"{""Q0"":""honestly i do NOT understand the instructions that I must check a HIGHLIGHTED a node. I can only use my arrows. I think of myself as a smart person, but I am not learning anything at all, nor am i doing anything differently""}",,,,,,,,,,,,,,,,
w268ba50,,,338610,11024,survey-text,,,"{""Q0"":""I guessed"",""Q1"":""34"",""Q2"":""cis female""}",,,,,,,,,,,,,,,,
wa655ea6,,,345205,14099,survey-text,,,"{""Q0"":""Not clicking as many nodes and only clicking ones that seem promising""}",,,,,,,,,,,,,,,,
wbe01bee,,,517079,20439,survey-text,,,"{""Q0"":""I didnt realize I had to click until I found the $48 before""}",,,,,,,,,,,,,,,,
w65df6b0,,,641758,49810,survey-text,,,"{""Q0"":""I started clicking on more of the nodes in the beginning to get a clear picture of the path that will lead to the most money. ""}",,,,,,,,,,,,,,,,
w4091bce,,,502892,25704,survey-text,,,"{""Q0"":""Checking the links between the final node and the starting node.""}",,,,,,,,,,,,,,,,
wc2b5152,,,297227,25638,survey-text,,,"{""Q0"":""not really just mainly random and going for the highest green I found"",""Q1"":""30"",""Q2"":""female""}",,,,,,,,,,,,,,,,
w57cddb3,,,384742,51426,survey-text,,,"{""Q0"":""Selecting different routes than I would normally take through better guessing.""}",,,,,,,,,,,,,,,,
wa882f45,,,381971,88507,survey-text,,,"{""Q0"":""at first i tried to guess without clicking but then i lost a large amount of cash.\ni then started to click nodes randomly but i was losing potential dollars saved so i only clicked on the final nodes and went to the one with the most""}",,,,,,,,,,,,,,,,
w2e1b41e,,,682013,52049,survey-text,,,"{""Q0"":""It seems I have to use the revealer and make my initial move to the negative node first (?) and then move in  that direction, that was really confusing ""}",,,,,,,,,,,,,,,,
wa51793d,,,547290,25663,survey-text,,,"{""Q0"":""I know now that I need to spend the $1 and explore all possible directions.""}",,,,,,,,,,,,,,,,
wd16177d,,,441052,34052,survey-text,,,"{""Q0"":""Not really"",""Q1"":""57"",""Q2"":""Female, the one I was born.""}",,,,,,,,,,,,,,,,
w8d52ecb,,,411232,87727,survey-text,,,"{""Q0"":""It all seemed random so not really."",""Q1"":""26"",""Q2"":""male""}",,,,,,,,,,,,,,,,
wdfa349a,,,398599,43359,survey-text,,,"{""Q0"":""I learned that, compared to the first stage, in this stage it was often best to choose the first path that seemed rewarding enough, rather than trying to find the optimal route, because the cost of checking each node was higher."",""Q1"":""33"",""Q2"":""Female""}",,,,,,,,,,,,,,,,
wc336e2f,,,228957,13573,survey-text,,,"{""Q0"":""once I see a 48, go straight for it.""}",,,,,,,,,,,,,,,,
wd7312ba,,,302048,22331,survey-text,,,"{""Q0"":""You should click nodes far ahead of where you are and plan out your path.""}",,,,,,,,,,,,,,,,
w952789a,,,650360,237139,survey-text,,,"{""Q0"":""My goal was to get at least 500 and could play fairly conservatively to get that number. I basically tried to find a green 15 or above and then would head straight to it. I assumed randomness instead of searching for a pattern."",""Q1"":""47"",""Q2"":""male""}",,,,,,,,,,,,,,,,
w21f2f2f,,,248560,39304,survey-text,,,"{""Q0"":""I mostly click to reveal the reward on my first step""}",,,,,,,,,,,,,,,,
w4cdd8c7,,,855478,37100,survey-text,,,"{""Q0"":""Being more patient. Learning that sometimes, the first positive step may not always lead to the highest paying outcome.""}",,,,,,,,,,,,,,,,
w6f2000f,,,689110,48157,survey-text,,,"{""Q0"":""Checking the end of the journey is more important than making sure that the very first step is right. The final outcome being of a higher value than the most immediate one pays off.""}",,,,,,,,,,,,,,,,
w2a77652,,,369176,25632,survey-text,,,"{""Q0"":""I clicked more nodes.""}",,,,,,,,,,,,,,,,
w9b1fd96,,,347702,161440,survey-text,,,"{""Q0"":""Towards the end, I figured I could save a few dollars that I would spend checking the nodes and just choose the same path every time. I thought over enough trials, the value of those dots would get me to breakeven and I wouldn't pay $1 to check any nodes. It turned out that didn't work so well and I lost money for like 4 rounds straight. Before doing that, my plan had been to check the nodes and if I found a +4 one, I would proceed along that path without needing to check any further nodes. Then I would go all the way to the end, moving counterclockwise (for consistency).""}",,,,,,,,,,,,,,,,
w85cb4f9,,,335909,77587,survey-text,,,"{""Q0"":""After I found out there were higher prices, I ended up looking at the end nodes until I find one with at least 25 to make up for the loss."",""Q1"":""19"",""Q2"":""Male""}",,,,,,,,,,,,,,,,
wd0081d4,,,310953,10962,survey-text,,,"{""Q0"":""Not since the starting test"",""Q1"":""30"",""Q2"":""Male""}",,,,,,,,,,,,,,,,
wada7d0d,,,350875,25707,survey-text,,,"{""Q0"":""the big amounts will be in the furthest circles so just click those""}",,,,,,,,,,,,,,,,
w04f8a30,,,660338,62251,survey-text,,,"{""Q0"":""I learned to check the most valuable net node. I have a strategy to play with this game compared to the beginning. ""}",,,,,,,,,,,,,,,,
wf36627e,,,359927,44685,survey-text,,,"{""Q0"":""I learned to use the inspector strategically. I look through the positive paths and try to find the +48""}",,,,,,,,,,,,,,,,
wbe01bee,,,404631,10130,survey-text,,,"{""Q0"":""No"",""Q1"":""25"",""Q2"":""Female""}",,,,,,,,,,,,,,,,
w43ee5a2,,,355308,31271,survey-text,,,"{""Q0"":""I used my hints more than yesterday!"",""Q1"":""48"",""Q2"":""female""}",,,,,,,,,,,,,,,,
w3052d4f,,,406537,134414,survey-text,,,"{""Q0"":""I felt like it was always worth checking the nodes until I found a 48 because it was always a net gain to get one even if you had to check multiple nodes. It made me more thorough.""}",,,,,,,,,,,,,,,,
w553c4fe,,,208061,17361,survey-text,,,"{""Q0"":""Nothing. I'm going to go with my gut instinct every time, as I did in practice.""}",,,,,,,,,,,,,,,,
wbccf662,,,557947,102267,survey-text,,,"{""Q0"":""I learned that I only needed to look at the end points to choose a path.  And I only needed to look until I found a +$48.  If there was none then I looked to see where the highest amount was.""}",,,,,,,,,,,,,,,,
w4cc6f0b,,,794206,58448,survey-text,,,"{""Q0"":""I learned that the largest magnitude \""endpoint\"" was usually the middle of the three branches, which allowed me to cut down on revealing expenses"",""Q1"":""19"",""Q2"":""male""}",,,,,,,,,,,,,,,,
w822dbd6,,,989748,171612,survey-text,,,"{""Q0"":""I continued to implement the same strategy as the previous day and learned I couldn't always make a profit."",""Q1"":""45"",""Q2"":""Male""}",,,,,,,,,,,,,,,,
wada7d0d,,,542839,28384,survey-text,,,"{""Q0"":""pick the first bigger amount i found"",""Q1"":""37"",""Q2"":""woman""}",,,,,,,,,,,,,,,,
we2adf14,,,612087,35509,survey-text,,,"{""Q0"":""Yes, instead of clicking on every single node for $3 I used my judgement to click on a few of those and save some money."",""Q1"":""26"",""Q2"":""Male""}",,,,,,,,,,,,,,,,
w10b0762,,,702833,179558,survey-text,,,"{""Q0"":""I learned that I need to get a better grip on understanding the patterns. "",""Q1"":""33"",""Q2"":""Woman""}",,,,,,,,,,,,,,,,
w9b5cac5,,,1445594,19659,survey-text,,,"{""Q0"":""Not really. Seemed a bit random."",""Q1"":""34"",""Q2"":""Female""}",,,,,,,,,,,,,,,,
w00f1425,,,370254,27493,survey-text,,,"{""Q0"":""no"",""Q1"":""48"",""Q2"":""female""}",,,,,,,,,,,,,,,,
w1a640b0,,,351763,57847,survey-text,,,"{""Q0"":""I don't think I planned anything during the experience since the numbers seemed quite random."",""Q1"":""40"",""Q2"":""Female""}",,,,,,,,,,,,,,,,
w1133849,,,385875,20609,survey-text,,,"{""Q0"":""trying to pick circles that had the highest amount"",""Q1"":""24"",""Q2"":""female""}",,,,,,,,,,,,,,,,
w6304f4a,,,286337,76379,survey-text,,,"{""Q0"":""I have no idea. I have no tactic/plan! Sometimes I click one of the gray circles at the start of the game, and if it's something like -24, I click a different one to make sure I don't land on a very bad circle. I try not to click too many so I don't lose $1 every time.""}",,,,,,,,,,,,,,,,
w6c8a977,,,1187708,94540,survey-text,,,"{""Q0"":""It's best to look at the end nodes to determine the course of action.""}",,,,,,,,,,,,,,,,
wbdd931d,,,552583,70487,survey-text,,,"{""Q0"":""I would just go for the 48 if the first click was 48 instead of trying to access to all the nodes""}",,,,,,,,,,,,,,,,
w21f2f2f,,,339689,27130,survey-text,,,"{""Q0"":""No"",""Q1"":""31"",""Q2"":""Male""}",,,,,,,,,,,,,,,,
w73cfc09,,,250210,19655,survey-text,,,"{""Q0"":""Checking nodes until I find the highest-paying end-node""}",,,,,,,,,,,,,,,,
w87ba793,,,404872,79374,survey-text,,,"{""Q0"":""There would usually be one decently profitable flight in the ending 3 branches, so spending at most 9 dollars to find a profitable flight was the technique I used."",""Q1"":""23"",""Q2"":""Male""}",,,,,,,,,,,,,,,,
wa589611,,,1090149,45752,survey-text,,,"{""Q0"":""Yes, I should not have checked all of them, I should have checked the destination only and worked toward those."",""Q1"":""39"",""Q2"":""Female""}",,,,,,,,,,,,,,,,
w1ebe356,,,648337,40959,survey-text,,,"{""Q0"":""I think staying with outer rings was best, but I faltered or was wrong."",""Q1"":""41"",""Q2"":""female""}",,,,,,,,,,,,,,,,
w6a5935c,,,428556,44598,survey-text,,,"{""Q0"":""I don't think I did, I used the same strategy throughout."",""Q1"":""20"",""Q2"":""Male""}",,,,,,,,,,,,,,,,
w76c9181,,,320442,20743,survey-text,,,"{""Q0"":""Click on the outer circles first to reveal the highest rewards, and always move to +48 if revealed""}",,,,,,,,,,,,,,,,
wb0d8750,,,491456,99289,survey-text,,,"{""Q0"":""Before I used to inspect the nodes at random but I learned that once I got a 48 valued-node I should not have continued inspecting nodes. I also learned that the outermost nodes (ending nodes) were the most important ones to inspect, anything else would've of been a waste since the highest/lowers points were stored on those nodes.""}",,,,,,,,,,,,,,,,
w9c48e6a,,,341450,26844,survey-text,,,"{""Q0"":""It cost too much to check all end routes. I had to settle for the first green end."",""Q1"":""23"",""Q2"":""male""}",,,,,,,,,,,,,,,,
w3806f41,,,277205,55655,survey-text,,,"{""Q0"":""The big green 48 blocks are only at the final nodes. You really just want to reveal those (it costs 6 total) and then path find to them. If two paths have them, check the branches for highest net cost vs. benefit.""}",,,,,,,,,,,,,,,,
w9a87a96,,,499370,12565,survey-text,,,"{""Q0"":""did not learn anything""}",,,,,,,,,,,,,,,,
we2adf14,,,332789,11259,survey-text,,,"{""Q0"":""Not sure, doing the same thing""}",,,,,,,,,,,,,,,,
w4cdd8c7,,,2970149,92322,survey-text,,,"{""Q0"":""I'm not so sure. It seemed quite random to me. At first I thought I should follow the green, but then sometimes following the red led to a better outcome. And sometimes not, but following the green seemed to be the better option."",""Q1"":""44"",""Q2"":""male""}",,,,,,,,,,,,,,,,
w57cddb3,,,522819,74302,survey-text,,,"{""Q0"":""Yes, I started being more safe with my choices and paths after getting a -80 dollar loss. I then clicked the destination node to reveal the price and planned around that node. "",""Q1"":""24"",""Q2"":""Male""}",,,,,,,,,,,,,,,,
wc9b1793,,,319785,29242,survey-text,,,"{""Q0"":""Clicking on the outer zones to find the largest payout""}",,,,,,,,,,,,,,,,
w870562f,,,383560,50035,survey-text,,,"{""Q0"":""I have to reveal the last circle of the node so I can go directly to the highest value""}",,,,,,,,,,,,,,,,
w75851d4,,,286084,12450,survey-text,,,"{""Q0"":""not much really""}",,,,,,,,,,,,,,,,
wcc818a2,,,275277,21746,survey-text,,,"{""Q0"":""I click the last circle of each path first to see which paths are worth uncovering.""}",,,,,,,,,,,,,,,,
wbaef3e2,,,576679,46244,survey-text,,,"{""Q0"":""I learned to first reveal the highest node and follow its path.""}",,,,,,,,,,,,,,,,
w378dfa2,,,659597,118408,survey-text,,,"{""Q0"":""This game is broken. It was incorrect when it told me I was wrong. For example, if it said the bubble to the right was a green 4 and the one up was a green 2, I would (correctly) move right and it would tell me I \""should have moved up\"". It then penalized me. Unless you planned to do this, there is a MAJOR glitch. There is not much else I learned, since it is not working correctly. ""}",,,,,,,,,,,,,,,,
w4f70e59,,,1118950,41070,survey-text,,,"{""Q0"":""I learned the importance of clicking on as many highlighted nodes as possible in order to choose the best path to earn money.""}",,,,,,,,,,,,,,,,
wbaef3e2,,,452626,19340,survey-text,,,"{""Q0"":""Yes"",""Q1"":""42"",""Q2"":""F""}",,,,,,,,,,,,,,,,
w1f49a65,,,302295,64001,survey-text,,,"{""Q0"":""During the first couple of rounds, I clicked on circles that weren't relevant to the round's final total. After the game corrected my strategy, I made more money.""}",,,,,,,,,,,,,,,,
w27b8993,,,309663,84172,survey-text,,,"{""Q0"":""At first I was clicking on every circle too see its value. Now, I am now focusing on the ending circle and looking for a high positive value. If I see two circles with the same value then I will go back and click each circle on the paths to determine which is the best. ""}",,,,,,,,,,,,,,,,
w164f313,,,261229,31390,survey-text,,,"{""Q0"":""The end result was the easiest way to determine what path I would choose.""}",,,,,,,,,,,,,,,,
w0e8cc38,,,860752,21413,survey-text,,,"{""Q0"":""Nothing but my time wasted. ""}",,,,,,,,,,,,,,,,
w75851d4,,,310153,35454,survey-text,,,"{""Q0"":""Well yeah, instead of saving the $3 and going in blindly, you have to take the risk into everything."",""Q1"":""20"",""Q2"":""Male""}",,,,,,,,,,,,,,,,
w16958b6,,,405413,81670,survey-text,,,"{""Q0"":""At first I was clicking on random nodes, but then I followed the directions suggesting which sorts of nodes to select.  After a few rounds, I clicked on the most peripheral nodes until I found the ones that said 48, then proceeded to move that direction and always came out with a satisfying amount of winnings.""}",,,,,,,,,,,,,,,,
wa531f96,,,230929,20704,survey-text,,,"{""Q0"":""I've learned it is easy to play a game if you notice the patterns.""}",,,,,,,,,,,,,,,,
w25f6b80,,,568803,35337,survey-text,,,"{""Q0"":""No.  I didn't see any rhyme or reason to it.  "",""Q1"":""57"",""Q2"":""female""}",,,,,,,,,,,,,,,,
wb1d44a5,,,291707,66927,survey-text,,,"{""Q0"":""The largest plus or minus values seem so far to be at the end of each path; I was gambling early on but eventually found this to be consistent. So by paying only to see the last node in each possible path I could generally do well by aiming for a +48 that I exposed. The values en route to the 48 were generally negligible compared to that positive payout.""}",,,,,,,,,,,,,,,,
w32e624f,,,232795,11770,survey-text,,,"{""Q0"":""just changing which direction I go""}",,,,,,,,,,,,,,,,
w1ba33d0,,,1013891,24494,survey-text,,,"{""Q0"":""At the beginning, I was only looking at the first bubbles to determine where to go, but I learned to look at the end bubbles first before deciding.""}",,,,,,,,,,,,,,,,
w378dfa2,,,375653,48688,survey-text,,,"{""Q0"":""I think that having the final move be to the left was beneficial in some cases. And I think that the best initial move was to go with the highest number. "",""Q1"":""52"",""Q2"":""female""}",,,,,,,,,,,,,,,,
wfb54fff,,,266021,30206,survey-text,,,"{""Q0"":""Be careful when selecting the path, but ultimately it's up to luck and chance""}",,,,,,,,,,,,,,,,
w7422809,,,722131,123209,survey-text,,,"{""Q0"":""in the beginning, I was hesitant to use the hints but as I played I started using them to see the endpoints so I could narrow it down to the best path to go on""}",,,,,,,,,,,,,,,,
w52e10f5,,,227912,16456,survey-text,,,"{""Q0"":""I am now only clicking on the end nodes to find out which has the highest""}",,,,,,,,,,,,,,,,
w9b6356e,,,707273,26848,survey-text,,,"{""Q0"":""I stopped as soon as I got a double-digit positive number."",""Q1"":""46"",""Q2"":""Male""}",,,,,,,,,,,,,,,,
w0604ccd,,,1678554,316635,survey-text,,,"{""Q0"":""As Kenny Rodgers said, you've got to know when to hold 'em, and know when to fold 'em. That 3 point per click created a hard hitting reality check early on when I attempted to re-use my previous strategy. Seeking a confirmation of an optimal route was not a viable option. Success through settling.  "",""Q1"":""28"",""Q2"":""Male""}",,,,,,,,,,,,,,,,
w3ad57cb,,,307837,27621,survey-text,,,"{""Q0"":""I just checked the endpoints and tried to get lucky after a few looks"",""Q1"":""33"",""Q2"":""male""}",,,,,,,,,,,,,,,,
we144403,,,287799,24998,survey-text,,,"{""Q0"":""nothing. everything is random... how am I supposed to learn anything from that? there's no obvious patterns here. ""}",,,,,,,,,,,,,,,,
w864d4b2,,,244309,17237,survey-text,,,"{""Q0"":""I am clicking more strategically - only on the final nodes.""}",,,,,,,,,,,,,,,,
wea39a49,,,497605,51164,survey-text,,,"{""Q0"":""I learned to make sure to click on the icons to reveal the money is a very good tactic. At first I did not click on them enough. The wait timer was annoying.""}",,,,,,,,,,,,,,,,
w6ab5ed9,,,490975,63798,survey-text,,,"{""Q0"":""At the beginning of the training I clicked on every dot to see the big picture, after learning the game wanted me to travel to the 48 I began basing my movement off of that. ""}",,,,,,,,,,,,,,,,
w711bb52,,,306880,20452,survey-text,,,"{""Q0"":""I'm finding the 48 and going straight to it to maximize money gain.""}",,,,,,,,,,,,,,,,
w49b487f,,,273851,29997,survey-text,,,"{""Q0"":""I think I'm just going to click on the ends of each tree until I find something useful, instead of clicking on everything intermediate.""}",,,,,,,,,,,,,,,,
w121b9c1,,,270781,49929,survey-text,,,"{""Q0"":""In the practice, the last node was worth far more or less than any previous node, so I began only checking those nodes to make my decisions.""}",,,,,,,,,,,,,,,,
w066a715,,,830546,334580,survey-text,,,"{""Q0"":""I still looked at the end points mainly to guess what node I should end up on. This one was a bit riskier because it cost $3 to reveal one of the numbers. I don't know if it was in my head, but when I saw an area with a large negative, I eventually just stayed away from all the nodes in that area. For a few of the simulations, at some point I just had to cut my losses and just go the best route I could find. I tried not to click more than 5 times for each round because then I would be down $15 just from exposing the numbers. Assuming I didn't gain/lose anything on the path, if I spent $15 and saw something greater than ~40, then that's already at a $25 profit, so I was content with that. This one definitely made me think about cutting my losses more (compared to Part 1) because there was greater risk involved."",""Q1"":""35"",""Q2"":""Male""}",,,,,,,,,,,,,,,,
w9b6356e,,,362958,28236,survey-text,,,"{""Q0"":""I clicked just the final nodes on the path, and stopped clicking once I found a final node with a value of $48.""}",,,,,,,,,,,,,,,,
w5f4991c,,,407770,29410,survey-text,,,"{""Q0"":""To find out the \""end\"" nodes rather than the first ones I'll move to. Those seem to be more extreme in their value so matters more than if I'm getting 4/-4 at the first step""}",,,,,,,,,,,,,,,,
wf762351,,,271906,28548,survey-text,,,"{""Q0"":""No, the amounts and pathing seems to be too random to plan for."",""Q1"":""25"",""Q2"":""male""}",,,,,,,,,,,,,,,,
w85a5a53,,,607949,13149,survey-text,,,"{""Q0"":""Checking the nodes until I find the right amount""}",,,,,,,,,,,,,,,,
w8f71810,,,310308,7971,survey-text,,,"{""Q0"":""i have no clue""}",,,,,,,,,,,,,,,,
w4fdf442,,,554208,22164,survey-text,,,"{""Q0"":""Just that if I saw a number I was happy with, that would probably be the best."",""Q1"":""48"",""Q2"":""Male""}",,,,,,,,,,,,,,,,
w801a8f0,,,373717,32549,survey-text,,,"{""Q0"":""At first, I was clicking on the beginning nodes, when it turns out that I need to click on the outer nodes first to see where I want to send the spider.""}",,,,,,,,,,,,,,,,
wc60255e,,,269084,23064,survey-text,,,"{""Q0"":""I understand that I should click the end nodes until I find +48. If there isn't one, start clicking the next inner nodes.""}",,,,,,,,,,,,,,,,
w131bb1f,,,301436,26177,survey-text,,,"{""Q0"":""Try to find the +$48 tile then move in that direction.""}",,,,,,,,,,,,,,,,
w76e01de,,,435833,23782,survey-text,,,"{""Q0"":""To not rush as much""}",,,,,,,,,,,,,,,,
wffa22e4,,,673845,11118,survey-text,,,"{""Q0"":""I know where to go based off of the clicking""}",,,,,,,,,,,,,,,,
we99b5b4,,,280339,10477,survey-text,,,"{""Q0"":""I learned where to click""}",,,,,,,,,,,,,,,,
w83ecf8d,,,388572,21396,survey-text,,,"{""Q0"":""By the end I was focusing on the outer nodes and the 48 point prize.""}",,,,,,,,,,,,,,,,
w959beb0,,,523679,69127,survey-text,,,"{""Q0"":""Slightly. It was much easier to plan when the web was smaller."",""Q1"":""31"",""Q2"":""Female""}",,,,,,,,,,,,,,,,
wc1b0c87,,,479762,74171,survey-text,,,"{""Q0"":""It was really just hoping to reveal green, tried to go no more than 4 clicks  and I hoped to average about 3 clicks."",""Q1"":""25"",""Q2"":""female""}",,,,,,,,,,,,,,,,
w908b47f,,,265388,31908,survey-text,,,"{""Q0"":""I learned to inspect the end nodes rather than the nodes closer to me. The end nodes tend to have the greatest gains or losses. ""}",,,,,,,,,,,,,,,,
wf6210ad,,,376038,31184,survey-text,,,"{""Q0"":""making sure I started aiming for 48""}",,,,,,,,,,,,,,,,
w672b9ce,,,382018,37516,survey-text,,,"{""Q0"":""No changes, just looking to see which path will yield the best reward""}",,,,,,,,,,,,,,,,
w87647aa,,,465824,68449,survey-text,,,"{""Q0"":""I learned which nodes to click and then find the one worth $48.""}",,,,,,,,,,,,,,,,
we6f3113,,,314925,5594,survey-text,,,"{""Q0"":""Absolutely nothing""}",,,,,,,,,,,,,,,,
wd600cfe,,,369676,47325,survey-text,,,"{""Q0"":""I used the same strategy as before, with only looking at the ends. At times, I thought there were patterns where the node that corresponded on the other side was similarly negative or positive."",""Q1"":""21"",""Q2"":""Female""}",,,,,,,,,,,,,,,,
wfb4bc5c,,,444788,59226,survey-text,,,"{""Q0"":""I learned to set up myself with 4 node checks and then move according to what knowledge i gained."",""Q1"":""20"",""Q2"":""Female""}",,,,,,,,,,,,,,,,
weefa095,,,323972,23674,survey-text,,,"{""Q0"":""Clicking on the circles until I find $48 then going to that circle""}",,,,,,,,,,,,,,,,
w04e39a4,,,454748,26946,survey-text,,,"{""Q0"":""I am being more cautious, thinking about all my options and making careful, deliberate decisions.""}",,,,,,,,,,,,,,,,
wbdd931d,,,457057,95554,survey-text,,,"{""Q0"":""If the number is small I could press two more nodes and find the largest one to go to. If it appears to be negative a few times, I will immediately just go to the first positive that popped up."",""Q1"":""20"",""Q2"":""Female""}",,,,,,,,,,,,,,,,
wf762351,,,230837,10929,survey-text,,,"{""Q0"":""I am doing nothing differently so far.""}",,,,,,,,,,,,,,,,
w54c02b5,,,285062,29614,survey-text,,,"{""Q0"":""I learned I should start be clicking the gray circles farthest from the spider, until I found the +48 node.""}",,,,,,,,,,,,,,,,
w4d3ace0,,,331763,53992,survey-text,,,"{""Q0"":""I learned that I might need to click on more nodes than I would have thought previously in order to maximize my earnings.""}",,,,,,,,,,,,,,,,
webe69b1,,,358169,38920,survey-text,,,"{""Q0"":""I'm just finding the +48 by clicking the spaces at the end of the paths. If there are two, I find the best past path to the plus +48""}",,,,,,,,,,,,,,,,
wd316fd3,,,525570,26188,survey-text,,,"{""Q0"":""I don't know""}",,,,,,,,,,,,,,,,
w74c6f79,,,495805,77476,survey-text,,,"{""Q0"":""I sure did! I learned that I shouldn't go too fast and I should have taken the time to develop a better strategy. "",""Q1"":""19"",""Q2"":""Man""}",,,,,,,,,,,,,,,,
w3d9d165,,,494868,47887,survey-text,,,"{""Q0"":""Not really! It's like gambling with the scarcest of information.\nThe fewer steps the better in theory, but it really was very random."",""Q1"":""43"",""Q2"":""Female""}",,,,,,,,,,,,,,,,
wcd17cba,,,807611,19988,survey-text,,,"{""Q0"":""I learned nothing, to be honest. No strategy used.""}",,,,,,,,,,,,,,,,
wfae338d,,,361649,64736,survey-text,,,"{""Q0"":""Yes, I learned at what point I should keep searching, and what point to just go for the reward. "",""Q1"":""19"",""Q2"":""male""}",,,,,,,,,,,,,,,,
w216da7e,,,256066,58260,survey-text,,,"{""Q0"":""I took longer to learn than I would've liked, but I figured out that there's always one good main branch followed by one good second branch. So, I would benefit from clicking only until I find each.""}",,,,,,,,,,,,,,,,
wb0d67f3,,,536769,36334,survey-text,,,"{""Q0"":""I'm not sure, I was more afraid to take risks by looking at final destinations"",""Q1"":""26"",""Q2"":""non-binary""}",,,,,,,,,,,,,,,,
w864d4b2,,,337134,47269,survey-text,,,"{""Q0"":""Yes! I learned to stick with the final nodes and to commit to the first \""good\"" amount, rather than continue clicking to find a \""better\"" amount and waste money."",""Q1"":""20"",""Q2"":""Cisgender woman""}",,,,,,,,,,,,,,,,
w1ba7061,,,570877,23697,survey-text,,,"{""Q0"":""Not really"",""Q1"":""49"",""Q2"":""female""}",,,,,,,,,,,,,,,,
w04f8a30,,,589773,41842,survey-text,,,"{""Q0"":""I don't need to check every nobe."",""Q1"":""34"",""Q2"":""Female""}",,,,,,,,,,,,,,,,
waf3707e,,,621859,82944,survey-text,,,"{""Q0"":""I learned that it wasn't worth the $3 to click on the inside nodes. I also think that the big amounts on the outside went down (and were less frequent) as the game went on because by the end I was clicking on almost every external node to find one worth going to."",""Q1"":""28"",""Q2"":""female""}",,,,,,,,,,,,,,,,
w83ecf8d,,,413500,61054,survey-text,,,"{""Q0"":""I focused on the second the later nodes rather than the closer nodes. The later nodes seemed to have a higher value."",""Q1"":""21"",""Q2"":""Male""}",,,,,,,,,,,,,,,,
w6a97990,,,342883,49915,survey-text,,,"{""Q0"":""I again looked to land a high-value destination, but it was a bit more challenging than the last task due to the -$3 penalty per click."",""Q1"":""35"",""Q2"":""male""}",,,,,,,,,,,,,,,,
w959beb0,,,414577,40859,survey-text,,,"{""Q0"":""I was starting by checking the nodes closest to me, but through practice realized I should search out the highest amount farthest away from me.""}",,,,,,,,,,,,,,,,
wab416d7,,,702834,99001,survey-text,,,"{""Q0"":""I learned to take risks and kind of embrace the lost. ""}",,,,,,,,,,,,,,,,
w37a96c2,,,526835,58717,survey-text,,,"{""Q0"":""I learned to click as few as possible. As long as I found one for $30 or more, I went ahead and took it. "",""Q1"":""42"",""Q2"":""female""}",,,,,,,,,,,,,,,,
w4cc6f0b,,,428894,48142,survey-text,,,"{""Q0"":""I learned a strategy to reveal as few nodes as possible which I implemented later in the rounds. ""}",,,,,,,,,,,,,,,,
w94b12b9,,,391616,77976,survey-text,,,"{""Q0"":""I learned to try one path entirely before paying for the others. This way I can save money if I choose the best path immediately. I also learned sometimes to just take the risk and guess. For me it worked out but next time I may not be so lucky. ""}",,,,,,,,,,,,,,,,
wd596dfb,,,411686,15094,survey-text,,,"{""Q0"":""The most important value is the end value.""}",,,,,,,,,,,,,,,,
w6db0f97,,,3286375,62644,survey-text,,,"{""Q0"":""That i am not very good at Web of Cash. I tried my hardest. This is the first time i Ever played this game ""}",,,,,,,,,,,,,,,,
w2d09e07,,,271852,32632,survey-text,,,"{""Q0"":""If I reveal a space that has a positive, sometimes I may not need to click on the other one or two left.  This is in order to save some money. ""}",,,,,,,,,,,,,,,,
w8849c6d,,,388204,46125,survey-text,,,"{""Q0"":""click at the far end of the branch / tree to find maximum amount""}",,,,,,,,,,,,,,,,
w0175c05,,,403245,56413,survey-text,,,"{""Q0"":""I pay more attention to the final blocks""}",,,,,,,,,,,,,,,,
w6b1b7c5,,,404949,31181,survey-text,,,"{""Q0"":""I clicked the second to last circles to see which had positive results, then picked the last values which negated most of the earlier values. "",""Q1"":""21"",""Q2"":""female""}",,,,,,,,,,,,,,,,
w3013d26,,,522594,89138,survey-text,,,"{""Q0"":""Not really. I was trying to see if there was a pattern to how many neg and pos were in each path but there was no pattern I could find. I think clicking till you find a good number at the end makes the most sense, but too much clicking and you lose more money."",""Q1"":""37"",""Q2"":""female""}",,,,,,,,,,,,,,,,
w8a8ab24,,,374899,36949,survey-text,,,"{""Q0"":""Focus more on the middle paths when paying to reveal them."",""Q1"":""28"",""Q2"":""female""}",,,,,,,,,,,,,,,,
wd2a2c7b,,,457710,25834,survey-text,,,"{""Q0"":""Yes I did"",""Q1"":""30"",""Q2"":""Male""}",,,,,,,,,,,,,,,,
w908b47f,,,327813,28346,survey-text,,,"{""Q0"":""I learned to use my resources wisely in planning end goals. "",""Q1"":""18"",""Q2"":""Female""}",,,,,,,,,,,,,,,,
we9f86ad,,,508273,100833,survey-text,,,"{""Q0"":""Probe until you get something above 50, and then move towards it regardless. Probing costs money. Do it as strategically as possible. "",""Q1"":""34"",""Q2"":""Female""}",,,,,,,,,,,,,,,,
wc298d78,,,588772,155713,survey-text,,,"{""Q0"":""Yeah, I think I did learn a little bit.  I think the biggest thing was that sometimes it's better to take a decent profit versus taking more risk to find a bigger profit. It doesn't always pay to keep searching, sometimes it's better to just stop where you are and try to get more the next round.  Plan to earn less in some rounds and hit it big in other rounds, and it will all average out in the end."",""Q1"":""40"",""Q2"":""Female""}",,,,,,,,,,,,,,,,
w5e37512,,,760203,113632,survey-text,,,"{""Q0"":""Originally, I clicked the node that provided the highest value after using the one dollar to reveal it. However, I thought there was a pattern, so I stopped using the reveal and simply went right up left up right for the last tasks. Unfortunately I did not keep track of where the loss was on the outer web, left or right, so I lost nearly every time. ""}",,,,,,,,,,,,,,,,
wbec4a17,,,366685,64385,survey-text,,,"{""Q0"":""Clicking the outer airports and going to the one with a value of 23or above would have left me with more money than trying to click a few unnecessary ones to find a super high paying one."",""Q1"":""22"",""Q2"":""Male""}",,,,,,,,,,,,,,,,
we213163,,,404283,24097,survey-text,,,"{""Q0"":""Not really. "",""Q1"":""29"",""Q2"":""Male""}",,,,,,,,,,,,,,,,
wf69e14e,,,449376,55913,survey-text,,,"{""Q0"":""I've learned to limit how much money I use on finding out the values, and as soon as I find the final space with the highest value, I head that way. I've starting clicking on the spaces with the final destinations and then revealing the path to get there, versus clicking randomly around the board.""}",,,,,,,,,,,,,,,,
wa882f45,,,467987,61919,survey-text,,,"{""Q0"":""i had to cut back on the clicking on revealing the profit/loss.\ni stuck with 30+ profit as soon as i found it"",""Q1"":""23"",""Q2"":""Male""}",,,,,,,,,,,,,,,,
w5d56dfe,,,280849,40333,survey-text,,,"{""Q0"":""I'll be moving slower and thinking more carefully before rushing to advance to the next node.""}",,,,,,,,,,,,,,,,
w9c62672,,,401466,33539,survey-text,,,"{""Q0"":""Since the highest possible value is $48, towards the end I was only checking the end nodes for which one is $48""}",,,,,,,,,,,,,,,,
w4f54495,,,731306,43075,survey-text,,,"{""Q0"":"""",""Q1"":""24"",""Q2"":""Female""}",,,,,,,,,,,,,,,,
w1620c80,,,375272,48608,survey-text,,,"{""Q0"":""At the end of flight patterns I noticed if one value was positive or negative the other values would follow suit. I tried to lean towards positive values to spend my money there before deciding on my final flight pattern to maximize my earnings."",""Q1"":""31"",""Q2"":""Male""}",,,,,,,,,,,,,,,,
we144403,,,522618,13006,survey-text,,,"{""Q0"":""no. lol"",""Q1"":""28"",""Q2"":""female""}",,,,,,,,,,,,,,,,
wf6210ad,,,577161,84867,survey-text,,,"{""Q0"":""maybe- I learned to take the first larger green sum I think.  I thought it was fun. "",""Q1"":""40"",""Q2"":""female""}",,,,,,,,,,,,,,,,
w9a87a96,,,339185,24404,survey-text,,,"{""Q0"":""nothing"",""Q1"":""46"",""Q2"":""male""}",,,,,,,,,,,,,,,,
w3ad57cb,,,434256,17006,survey-text,,,"{""Q0"":""show all and pick highest""}",,,,,,,,,,,,,,,,
w3a7d863,,,630016,67566,survey-text,,,"{""Q0"":""I've learned that the nodes change from game to game and that I should only use a certain amount of clicks.""}",,,,,,,,,,,,,,,,
w3104315,,,281521,24923,survey-text,,,"{""Q0"":""Look at the end nodes first. But that strategy wouldn't work if the end nodes weren't worth the most.""}",,,,,,,,,,,,,,,,
w04d56d7,,,556908,59797,survey-text,,,"{""Q0"":""I uncovered the furthest out parts of the web first so as to minimize deductions and make sure I went to the part of the web worth 48""}",,,,,,,,,,,,,,,,
w42f0835,,,386003,33949,survey-text,,,"{""Q0"":""I stopped looking at the main routes and just looked at the destinations. I looked for positive numbers and went for the highest."",""Q1"":""40"",""Q2"":""Male""}",,,,,,,,,,,,,,,,
wff57731,,,639079,82009,survey-text,,,"{""Q0"":""I weighed the possible benefit of clicking another space versus the $3 it cost.  Once I got a reasonable + amount, I went for it."",""Q1"":""76"",""Q2"":""Male""}",,,,,,,,,,,,,,,,
w85cb4f9,,,297850,39933,survey-text,,,"{""Q0"":""Instead of seeing nodes for the first move, I saw the ones at the end where the higher payouts were""}",,,,,,,,,,,,,,,,
w81d3c41,,,403320,8739,survey-text,,,"{""Q0"":""Clicking all of the nodes I can before moving. ""}",,,,,,,,,,,,,,,,
we9f86ad,,,481286,55052,survey-text,,,"{""Q0"":""Interior nodes are irrelevant, terminal nodes have most of the value. Once you find high value in the terminal nodes cease clicking and start moving.""}",,,,,,,,,,,,,,,,
w595e5e4,,,342711,23951,survey-text,,,"{""Q0"":""End of the path is critical"",""Q1"":""26"",""Q2"":""female""}",,,,,,,,,,,,,,,,
w54c02b5,,,407473,29692,survey-text,,,"{""Q0"":""I started by revealing the farthest dots, then proceeded to follow those paths to the largest sum."",""Q1"":""33"",""Q2"":""Male""}",,,,,,,,,,,,,,,,
wa531f96,,,335586,19889,survey-text,,,"{""Q0"":""I learned that there will be patterns."",""Q1"":""19"",""Q2"":""Male""}",,,,,,,,,,,,,,,,
wd7312ba,,,651309,63566,survey-text,,,"{""Q0"":""I felt like my strategy wasn't optimal, but I just clicked through the end nodes and generally went for whichever end node was >$30."",""Q1"":""21"",""Q2"":""Male""}",,,,,,,,,,,,,,,,
wa589611,,,526027,29397,survey-text,,,"{""Q0"":""I learned that I needed to reveal all nodes in order to move the spider in the right direction.""}",,,,,,,,,,,,,,,,
w2b98d1e,,,385632,60480,survey-text,,,"{""Q0"":""Yes. Instead of using the node detector on the nodes closest to the start, I used it on the high-yielding nodes, disregarding the nodes in between. That got me the most profits."",""Q1"":""18"",""Q2"":""Male""}",,,,,,,,,,,,,,,,
wcacd23b,,,383641,16985,survey-text,,,"{""Q0"":""look at final destinations"",""Q1"":""26"",""Q2"":""female""}",,,,,,,,,,,,,,,,
wc7489d9,,,310425,16377,survey-text,,,"{""Q0"":""clicking only until i find +48 node""}",,,,,,,,,,,,,,,,
w5697380,,,291731,45976,survey-text,,,"{""Q0"":""I have learned that it seems completely random and no matter what I click on, it seems to make no sense""}",,,,,,,,,,,,,,,,
w3bd5801,,,365368,18541,survey-text,,,"{""Q0"":""check end nodes first""}",,,,,,,,,,,,,,,,
wa5f061a,,,362868,11540,survey-text,,,"{""Q0"":""I learned that the big values are at the end of each line!""}",,,,,,,,,,,,,,,,
w383bb6f,,,506756,46460,survey-text,,,"{""Q0"":""Yap, Good"",""Q1"":""44"",""Q2"":""male""}",,,,,,,,,,,,,,,,
w066a715,,,595109,305182,survey-text,,,"{""Q0"":""I started in the beginning by just clicking a few spots for a dollar to made sure I didn't lose money. After a round or two, I noticed the 48 or 24 spots were at the end of the routes, so I could start by checking those spots. Also, since it was only a dollar to look at ~6 spots and find a 48 dollar spot, it was logical to pay the 6 dollars to made sure I would hit the +24 or +48 and guarantee profit. Near the end I defaulted to checking the end spots and just going from there, and I had no second thought about whether or not I should try to save a dollar or two. Once I found the +48, in the earlier stages, I checked how much I would lose on the path there. I never lost more than 24, so if i found the +48, I didn't have to open up any more; I just had to head straight for the +48.""}",,,,,,,,,,,,,,,,
w7ecc99c,,,592108,46776,survey-text,,,"{""Q0"":""I think that I learned that it is worth checking which fields are worth how much, so during the game I chose as many fields as possible\n""}",,,,,,,,,,,,,,,,
w7892c83,,,656888,56150,survey-text,,,"{""Q0"":""Yes, to reveal only end nodes and move in directions with confirmed profit."",""Q1"":""18"",""Q2"":""Male""}",,,,,,,,,,,,,,,,
w61e9b7a,,,591691,51427,survey-text,,,"{""Q0"":""I'm not sure if I planned better or had a strategy. But I did have fun!"",""Q1"":""36"",""Q2"":""female""}",,,,,,,,,,,,,,,,
w3861fef,,,358539,27696,survey-text,,,"{""Q0"":""I usually did better by checking less nodes I think. "",""Q1"":""56"",""Q2"":""female""}",,,,,,,,,,,,,,,,
w5e37512,,,431064,55098,survey-text,,,"{""Q0"":""The only thing that I learned is that revealing the first three circles made no difference in the outcome and I was better off not spending that nine dollars and just leaving it to chance. "",""Q1"":""47"",""Q2"":""female""}",,,,,,,,,,,,,,,,
wd596dfb,,,539597,46295,survey-text,,,"{""Q0"":""I learned how to gauge whether something looked like a good reward without having to look further."",""Q1"":""37"",""Q2"":""male""}",,,,,,,,,,,,,,,,
webe69b1,,,581067,48930,survey-text,,,"{""Q0"":""Not really. In this version you had to get lucky and find an ending space with a high number with one of your first clicks in order to optimize your bonus."",""Q1"":""33"",""Q2"":""Male""}",,,,,,,,,,,,,,,,
wac459ac,,,440955,55507,survey-text,,,"{""Q0"":""I was checking the closest nodes at first assuming finding a green would mean the rest of the path was green like the first example. After finding this not to be the case I checked the outer nodes until I found a +48 then pathed there""}",,,,,,,,,,,,,,,,
w1a640b0,,,447915,18794,survey-text,,,"{""Q0"":""I wasn't doing any different.""}",,,,,,,,,,,,,,,,
wbec4a17,,,317777,33078,survey-text,,,"{""Q0"":""It's better to click on the outer nodes and once a $48 is revealed to make the spider move towards it.""}",,,,,,,,,,,,,,,,
wd3fa27d,,,341845,39216,survey-text,,,"{""Q0"":""I only really needed to click on the outside circles to find which one was 48 in order to maximize returns rather than clicking them all or trying to find a more lucrative path.""}",,,,,,,,,,,,,,,,
wbd28639,,,610036,154440,survey-text,,,"{""Q0"":""I don't think I have. Unless the lesson is that spending money to know that there if is a profitable end goal that likely outweighs the travel cost, it is wise to spend money learning that fact. In which case, yes."",""Q1"":""26"",""Q2"":""Male""}",,,,,,,,,,,,,,,,
wcc72b06,,,485913,52391,survey-text,,,"{""Q0"":""I figured out which places I didn't need to waste resources on, because I would have to go there anyways to get the end path."",""Q1"":""31"",""Q2"":""Male""}",,,,,,,,,,,,,,,,
wc1b79e1,,,778687,39087,survey-text,,,"{""Q0"":""To be honest, I had no idea what I was doing the whole time... Maybe I should have taken advantage of previewing the gray circles.""}",,,,,,,,,,,,,,,,
w595e5e4,,,298757,33127,survey-text,,,"{""Q0"":""the end circles seem to have the highest bonus, so IDing those is more important than the first circles""}",,,,,,,,,,,,,,,,
wfb4bc5c,,,402259,37937,survey-text,,,"{""Q0"":""I ended up learning to be patient and check the nodes before I move.""}",,,,,,,,,,,,,,,,
wa029bc1,,,414433,36281,survey-text,,,"{""Q0"":""I learned that I shouldn't waste clicks after I see that something is $48 and I should click all of the ends of the web first before clicking the other nodes.""}",,,,,,,,,,,,,,,,
w0332285,,,354655,39481,survey-text,,,"{""Q0"":""I've learned that the higher value nodes occur at the end of the path (not sure if this was in the instructions). So I click the terminal nodes first.""}",,,,,,,,,,,,,,,,
w07394b7,,,818140,259582,survey-text,,,"{""Q0"":""I learned nothing. \nThere was no incentive or any signposts which might have given me guidance to earn more.\nIt's was all painful guesses with no encouragement to possibly  explore better paying paths."",""Q1"":""70"",""Q2"":""Male""}",,,,,,,,,,,,,,,,
wff57731,,,590852,35636,survey-text,,,"{""Q0"":""As soon as a top $ box is revealed, start moving towards that box.""}",,,,,,,,,,,,,,,,
w07394b7,,,593488,106632,survey-text,,,"{""Q0"":""I picked the 4 corners at the beginning to to learn their rewards before deciding which direction I should move.""}",,,,,,,,,,,,,,,,
w54499ba,,,1156262,64912,survey-text,,,"{""Q0"":""Honestly, nothing. ABSOLUTELY nothing. I started clicking on more spaces at the very end to see which was green, but ... it doesn't seem like it mattered.""}",,,,,,,,,,,,,,,,
w3b97ab5,,,323156,49386,survey-text,,,"{""Q0"":""I had to balance luck and guessing with strategically using my reveals to not overspend."",""Q1"":""20"",""Q2"":""Male""}",,,,,,,,,,,,,,,,
w0c4e953,,,341660,32981,survey-text,,,"{""Q0"":""I found the big numbers were only at the end nodes so I clicked the end nodes first then just the nodes that led to the highest payout""}",,,,,,,,,,,,,,,,
wed8863d,,,472405,24848,survey-text,,,"{""Q0"":""Yes! this was super fun- thank you!"",""Q1"":""38"",""Q2"":""Female""}",,,,,,,,,,,,,,,,
w37a96c2,,,401415,25578,survey-text,,,"{""Q0"":""Clicking the corner nodes first and going for the highest positive number""}",,,,,,,,,,,,,,,,
we233074,,,603196,18094,survey-text,,,"{""Q0"":""Taking my time and paying more attention to where the money was. ""}",,,,,,,,,,,,,,,,
w9fdf69d,,,372450,12042,survey-text,,,"{""Q0"":""Clicking less nodes and moving sooner.""}",,,,,,,,,,,,,,,,
we191a7a,,,368566,50426,survey-text,,,"{""Q0"":""I ended up using a lot more \""upfront payments\"" to find out what the final score would be and it was helpful to avoid some of the high deducting points. However, it still felt like half of the game still relied on luck. "",""Q1"":""22"",""Q2"":""female""}",,,,,,,,,,,,,,,,
wc60c79d,,,508367,27924,survey-text,,,"{""Q0"":""I learned the click the end point rather than the first node that I could move to""}",,,,,,,,,,,,,,,,
w8f66a39,,,292720,35344,survey-text,,,"{""Q0"":""Negative. I should have been more attentive to the patterns."",""Q1"":""35"",""Q2"":""Manly man""}",,,,,,,,,,,,,,,,
wc298d78,,,508557,129059,survey-text,,,"{""Q0"":""At the end (final 2-3 rounds), I started taking more risks and moving before I clicked many circles, because I started to feel confident that I knew what the board would look like and that I would \""win.\"" This ended up in me losing money! I shouldn't have tried to take short-cuts, but instead should have continued my method of orderly clicking certain circles to get a better idea of where I should go.  Tomorrow I will not make this mistake!""}",,,,,,,,,,,,,,,,
w9c48e6a,,,361834,37655,survey-text,,,"{""Q0"":""It's worth more to spend to check every necessary node.  Check the end nodes and progressively come in closer to the start until you know the right path.""}",,,,,,,,,,,,,,,,
w504e675,,,641665,16004,survey-text,,,"{""Q0"":""i dont know""}",,,,,,,,,,,,,,,,
w3d9d165,,,339394,52992,survey-text,,,"{""Q0"":""I didn't understand at first but through trial and error understood that I should click the end nodes until the positive value of 48 appeared.""}",,,,,,,,,,,,,,,,
w94b12b9,,,378147,55787,survey-text,,,"{""Q0"":""I learned to guess the end spots since they were bigger. Let the smaller amounts be random and take the loss or gain on them. They ere not worth checking. "",""Q1"":""18"",""Q2"":""male""}",,,,,,,,,,,,,,,,
w8883c2c,,,766224,145939,survey-text,,,"{""Q0"":""I've learn  the  points in every arrow direction.""}",,,,,,,,,,,,,,,,
w98bf507,,,324866,36848,survey-text,,,"{""Q0"":""I started out by clicking the nodes closest to the spider then moving out. At the end, I checked the outward most nodes until I found $48.""}",,,,,,,,,,,,,,,,
w1133849,,,471406,20728,survey-text,,,"{""Q0"":""i learned to check all the nodes and as soon as i find $48, go to that path""}",,,,,,,,,,,,,,,,
w1bcf0d4,,,400335,43973,survey-text,,,"{""Q0"":""I probably spent too much revealing nodes.  I'm sure there was a pattern there that I was just missing."",""Q1"":"""",""Q2"":""Male""}",,,,,,,,,,,,,,,,
w9993948,,,750219,107805,survey-text,,,"{""Q0"":""nothing, but you simulator is off If I pressed the up key it would tell me I am wrong and should have gone right. The I would get a penalty and still go up.""}",,,,,,,,,,,,,,,,
w1ba7061,,,397750,49327,survey-text,,,"{""Q0"":""I am clicking on the last circles to see where the highest amount is no matter how many I need to click instead of guessing which way to go to save dollars""}",,,,,,,,,,,,,,,,
w00f1425,,,1207388,38745,survey-text,,,"{""Q0"":""it was difficult at first but then I got the hang of it""}",,,,,,,,,,,,,,,,
w268ba50,,,240680,11181,survey-text,,,"{""Q0"":""i'm not clicking any more after i find the highest possible value""}",,,,,,,,,,,,,,,,
wcc72b06,,,442229,73968,survey-text,,,"{""Q0"":""Started out just clicking a few, then it wasn't too expensive to click all of them, by the end I clicked the main paths, found the most profitable path, and tried one of the end points, if that was a negative, I tried the other.""}",,,,,,,,,,,,,,,,
w12ddeff,,,296523,30598,survey-text,,,"{""Q0"":""I am clicking through a full path because the cost of revealing a node is less than ending on a -24 or -48""}",,,,,,,,,,,,,,,,
w9a8f6ff,,,239295,39062,survey-text,,,"{""Q0"":""Instead of looking for how much I would make in the first few moves I realized that the most important factor was if you would gain or lose a large amount of money at the end of the round""}",,,,,,,,,,,,,,,,
wed8863d,,,512385,52351,survey-text,,,"{""Q0"":""I know the order in which to click the nodes now and know once I reveal a +48, no more clicking is required- go for the 48!""}",,,,,,,,,,,,,,,,
w1620c80,,,617444,39852,survey-text,,,"{""Q0"":""At first I attempted to go the route of the higher positive value, but that didn't seem to be the optimal selection each time. I didn't find the pattern if there was one and hopefully I can better recognize it in the second part.""}",,,,,,,,,,,,,,,,
wf76281c,,,331593,32654,survey-text,,,"{""Q0"":""No, I struggled to find a way to strategically improve my score over."",""Q1"":""23"",""Q2"":""Male""}",,,,,,,,,,,,,,,,
w49b487f,,,386659,65438,survey-text,,,"{""Q0"":""At first because of the larger layout I messed around with looking at the intermediate spaces again.  Then I realized I needed to keep my focus on the ends, and sometimes just take the best I can get without losing too much to investigation."",""Q1"":""29"",""Q2"":""Male""}",,,,,,,,,,,,,,,,
we213163,,,278773,42142,survey-text,,,"{""Q0"":""I started to mostly click on the further nodes, trying to find the highest number possible with the least amount of clicks. +48 seemed to often be at the end of a line.""}",,,,,,,,,,,,,,,,
w2eb8ffb,,,333989,26949,survey-text,,,"{""Q0"":""Revealing nodes until I find the +$48 ""}",,,,,,,,,,,,,,,,
wbd28639,,,424598,50263,survey-text,,,"{""Q0"":""I've learned that going for the maximum number I can find with the test generally leads to the highest profit.""}",,,,,,,,,,,,,,,,
wc1b0c87,,,441144,80598,survey-text,,,"{""Q0"":""you must reveal a 48 before proceeding. you must click the furthest grey circles. I will initially click the farthest circles until 48 is revealed then go""}",,,,,,,,,,,,,,,,
w2b98d1e,,,595647,38670,survey-text,,,"{""Q0"":""Not to use the node inspector. The first few nodes don't matter.""}",,,,,,,,,,,,,,,,
w43ee5a2,,,306450,21495,survey-text,,,"{""Q0"":""Sometimes paying a dollar will help you get a better reward""}",,,,,,,,,,,,,,,,
wc0787f1,,,355167,37859,survey-text,,,"{""Q0"":""Begin with the end in mind. Be conscious of how much your clicks costs "",""Q1"":""24"",""Q2"":""Male""}",,,,,,,,,,,,,,,,
w72a67a8,,,381469,78488,survey-text,,,"{""Q0"":""I noticed that the ends of the we contained larger prizes/deductions, so I started checking the end of the webs first to see the end consequences, then checked the most promising pathways before choosing a direction.""}",,,,,,,,,,,,,,,,
wc94aa43,,,538885,80051,survey-text,,,"{""Q0"":""Well this requires some luck, and also the last nodes are either the mosta valuable or the least so if I know where is the biggest value I just go there no matter the cost between the other nodes.""}",,,,,,,,,,,,,,,,
w5bc917d,,,553019,62648,survey-text,,,"{""Q0"":""Well, maybe get what is safe? Get the best without looking for too many options, because I do not know the structure of the payoffs."",""Q1"":""31"",""Q2"":""Female""}",,,,,,,,,,,,,,,,
wc1626b1,,,497391,101718,survey-text,,,"{""Q0"":""I think clicking on one of the final nodes is the best strategy to finding the highest cash value. I started clicking on less nodes to show the value at the beginning of each round once I found one with a value of $48.""}",,,,,,,,,,,,,,,,
w7628afc,,,703002,197315,survey-text,,,"{""Q0"":""I learned to not go always go blindly into moving my airplane.  I also learned not to waste my money by clicking on all the end locations for the plane.  I usually ended up losing money this way."",""Q1"":""31"",""Q2"":""Female""}",,,,,,,,,,,,,,,,
w3a7d863,,,394054,49612,survey-text,,,"{""Q0"":""I think I learned to try to avoid the losses as much as possible."",""Q1"":""36"",""Q2"":""Male""}",,,,,,,,,,,,,,,,
w913158b,,,292055,46025,survey-text,,,"{""Q0"":""Im going to just follow my gut because it's random every time. I might go the opposite direction if both are red or both are green.""}",,,,,,,,,,,,,,,,
w65df6b0,,,614091,48357,survey-text,,,"{""Q0"":""I leaned to not click on as many nodes as in the previous game and that as soon as you find a high number just navigate to it. "",""Q1"":""21"",""Q2"":""Female""}",,,,,,,,,,,,,,,,
w8f66a39,,,1022359,31487,survey-text,,,"{""Q0"":""It seemed revealing the dot's value had no positive effect, so I stopped choosing to do so.""}",,,,,,,,,,,,,,,,
w9b5cac5,,,305044,24169,survey-text,,,"{""Q0"":""I know now that the instructions want me only to reveal the nodes at the end of the pathways and not the other nodes.""}",,,,,,,,,,,,,,,,
w338a3d2,,,441356,18848,survey-text,,,"{""Q0"":""basically try to avoid loss is more important than trying to gain positive values""}",,,,,,,,,,,,,,,,
we4a987a,,,420206,51526,survey-text,,,"{""Q0"":""I initially looked at the next nodes (3), but now I check for the end nodes to see if there's a $48 node. Almost always there is one at the end node.""}",,,,,,,,,,,,,,,,
we547607,,,528223,8851,survey-text,,,"{""Q0"":""i don't know if i learned anything""}",,,,,,,,,,,,,,,,
wbccf662,,,735579,79910,survey-text,,,"{""Q0"":""Not really.  I learned in the game to stop looking when I found a destination that would be profitable.  I not sure that translates to real life planning."",""Q1"":""75"",""Q2"":""male""}",,,,,,,,,,,,,,,,
w52e10f5,,,389849,43780,survey-text,,,"{""Q0"":""It was kind of hard due to the number of options given. I don't think I learned better because it was hard to find any patterns. "",""Q1"":""22"",""Q2"":""Nonbinary""}",,,,,,,,,,,,,,,,
wadc9d05,,,418296,10220,survey-text,,,"{""Q0"":"""",""Q1"":""56"",""Q2"":""female""}",,,,,,,,,,,,,,,,
wc0787f1,,,388308,53219,survey-text,,,"{""Q0"":""My first strategy was to choose the reveal the three circles closes to me and go on the green one. But soon i found out it was better to just reveal the endspaces searching for the 48""}",,,,,,,,,,,,,,,,
w8d52ecb,,,310302,161171,survey-text,,,"{""Q0"":""I learned that I should be spending money to learn how much is in the final nodes. The money I make ends up making it worth it in the end.""}",,,,,,,,,,,,,,,,
w3c3e725,,,368073,27736,survey-text,,,"{""Q0"":""I just revealed all the nodes in each round and still made a profit. ""}",,,,,,,,,,,,,,,,
w1ebe356,,,493791,55988,survey-text,,,"{""Q0"":""in the final rounds i started clicking on the outer circles first because there was almost always a 48 there (not always) and that seemed to be the best route.""}",,,,,,,,,,,,,,,,
w50785fe,,,789657,8239,survey-text,,,"{""Q0"":""dont gamble""}",,,,,,,,,,,,,,,,
w803befa,,,617861,18777,survey-text,,,"{""Q0"":""Clicking on highlighted nodes even though it costs me $1""}",,,,,,,,,,,,,,,,
w9f9da77,,,419773,80846,survey-text,,,"{""Q0"":""Not really. I believe being able to see how much each pocket is worth in the beginning is not helpful because there are random pockets on the way that makes me lose a lot of money. I learned it is better to save those dollars and go on a path and try to guess where the positive values are."",""Q1"":""20"",""Q2"":""Male""}",,,,,,,,,,,,,,,,
w870562f,,,582422,53034,survey-text,,,"{""Q0"":""I think so... It seems like it's better to focus on the goal rather than the road."",""Q1"":""21"",""Q2"":""Male""}",,,,,,,,,,,,,,,,
wc2b5152,,,253602,34491,survey-text,,,"{""Q0"":""nothing specific mainly check the first nodes and at least one at the end of the path I think I will be taking""}",,,,,,,,,,,,,,,,
wdfa349a,,,329378,56151,survey-text,,,"{""Q0"":""I learned that the value of the reward/penalty is highest at the farthest nodes, so I should start checking there, and check the closest nodes last and only in case of a tie further out on the web. I also learned that, once I have found a node worth 48, I should just move toward that.""}",,,,,,,,,,,,,,,,
w3cf0b45,,,328137,37442,survey-text,,,"{""Q0"":""I clicked on the end of each stem to find out my end goal. ""}",,,,,,,,,,,,,,,,
w952789a,,,522489,65091,survey-text,,,"{""Q0"":""I think I started to figure it out by the time it ended, so trial through error.""}",,,,,,,,,,,,,,,,
wc9b1793,,,431823,28554,survey-text,,,"{""Q0"":""Not really over yesterday"",""Q1"":""59"",""Q2"":""Male""}",,,,,,,,,,,,,,,,
w459b9e5,,,426439,90874,survey-text,,,"{""Q0"":""I was clicking the nodes closest to the center at the start.  After a few levels I started clicking the final destination nodes to check for 48's.  It worked for all except one round but I don't know what the numbers were in that path since I didn't pay for them to be revealed.""}",,,,,,,,,,,,,,,,
waf3707e,,,351295,44078,survey-text,,,"{""Q0"":""I learned to start with the 2nd node in a path to see if I could narrow down which nodes to spend money on. I also learned that the investment of the node investigator is really worth it.""}",,,,,,,,,,,,,,,,
w4fdf442,,,353898,10093,survey-text,,,"{""Q0"":""Starting with the end nodes.""}",,,,,,,,,,,,,,,,
w9f9da77,,,806823,41010,survey-text,,,"{""Q0"":""I have learned that this game is difficult and you can only move one certain way at the first move. ""}",,,,,,,,,,,,,,,,
w9681113,,,610731,34380,survey-text,,,"{""Q0"":""There were indications that I should have moved in a particular direction and associated time penalties""}",,,,,,,,,,,,,,,,
wd2a2c7b,,,570616,52143,survey-text,,,"{""Q0"":""I now follow the same path  twice""}",,,,,,,,,,,,,,,,
wfae338d,,,340482,74462,survey-text,,,"{""Q0"":""I have learned that the largest rewards are the furthest away, and that the possible (large) rewards are 24 and 48. According to the guide, once I see the 48 I should immediately go for it. ""}",,,,,,,,,,,,,,,,
w05c03dc,,,429336,42859,survey-text,,,"{""Q0"":""Chose the end result nodes only and just went for any with high dollar amounts rather than continue to click nodes"",""Q1"":""27"",""Q2"":""Male""}",,,,,,,,,,,,,,,,
wda39b48,,,409460,65786,survey-text,,,"{""Q0"":""Rather than start at the nodes closest to myself, I noticed a pattern that the larger positive and negative amounts were at the farthest nodes, so I would begin by clicking those, and then based on those numbers I would determine if I needed to reveal any more nodes.""}",,,,,,,,,,,,,,,,
w6a97990,,,262150,35839,survey-text,,,"{""Q0"":""I am clicking until I find a $48.  The delta between $24 and $48 justifies continuing to click, but at $48, there is nothing to be gained.""}",,,,,,,,,,,,,,,,
w0a1ea49,,,246147,28976,survey-text,,,"{""Q0"":""I learned to pick the last node to see which one had a positive outcome. The path to the last node wasn't as important as the final outcome.""}",,,,,,,,,,,,,,,,
w10b0762,,,1303900,30818,survey-text,,,"{""Q0"":""I'm paying more attention to the patterns that are presented to me each time.""}",,,,,,,,,,,,,,,,
w25f6b80,,,690907,30264,survey-text,,,"{""Q0"":""spending a dollar per gray circle to find out which direction to go.""}",,,,,,,,,,,,,,,,
wccecfea,,,541452,17854,survey-text,,,"{""Q0"":""I have learned to try different options because it is random.""}",,,,,,,,,,,,,,,,
wc94aa43,,,414326,65181,survey-text,,,"{""Q0"":""Sometimes is good to spend a bit to have a clear understanding what final efect to invest in."",""Q1"":""22"",""Q2"":""male, heterosexual""}",,,,,,,,,,,,,,,,
wd600cfe,,,273804,64080,survey-text,,,"{""Q0"":""In the beginning I focused on testing nodes closest to me. However, I quickly realized that the nodes at the end of the webs were often really high values, so I started testing those first. No matter what, I would go to the path that led to either positive 48 or positive 24, avoiding the negative end values.""}",,,,,,,,,,,,,,,,
wcf83aaf,,,2350558,105445,survey-text,,,"{""Q0"":""the timing and clicking of nodes""}",,,,,,,,,,,,,,,,
w0175c05,,,448189,47583,survey-text,,,"{""Q0"":""I tried not to spend a lot to see the boxes"",""Q1"":""21"",""Q2"":""Male""}",,,,,,,,,,,,,,,,
we191a7a,,,408572,38283,survey-text,,,"{""Q0"":""I learned that it might be worth it to pay the $1 fee to reveal what the final destination number was because then I could earn money rather than rely on chance and keep losing money. ""}",,,,,,,,,,,,,,,,
w5bc917d,,,380324,22097,survey-text,,,"{""Q0"":""I will explore the end nodes first.""}",,,,,,,,,,,,,,,,
w42f0835,,,291061,18879,survey-text,,,"{""Q0"":""The middle sections don't matter as much as the end points.""}",,,,,,,,,,,,,,,,
w5143b4a,,,601296,42320,survey-text,,,"{""Q0"":""To make the right decisions. Picking the right spots.""}",,,,,,,,,,,,,,,,
wb0d8750,,,472320,59506,survey-text,,,"{""Q0"":""I don't think I did. I thought the game was very engaging and I didn't really feel like that there was a lot of stakes to do amazingly well. "",""Q1"":""23"",""Q2"":""male""}",,,,,,,,,,,,,,,,
w9993948,,,423371,42344,survey-text,,,"{""Q0"":""no it didn't seem to follow any pattern"",""Q1"":""41"",""Q2"":""male""}",,,,,,,,,,,,,,,,
w459b9e5,,,494666,123544,survey-text,,,"{""Q0"":""Spending too much time on figuring out which direction to go can end up in failure.  Having a final goal in mind can help you plan a path to success."",""Q1"":""33"",""Q2"":""Female""}",,,,,,,,,,,,,,,,
w3bd5801,,,487583,9472,survey-text,,,"{""Q0"":"""",""Q1"":""28"",""Q2"":""female""}",,,,,,,,,,,,,,,,
w04d56d7,,,714042,42673,survey-text,,,"{""Q0"":""I just checked the end destination points and went towards the highest ones."",""Q1"":""37"",""Q2"":""male""}",,,,,,,,,,,,,,,,
w0e8cc38,,,280952,16329,survey-text,,,"{""Q0"":""No"",""Q1"":""40"",""Q2"":""male""}",,,,,,,,,,,,,,,,
w5d56dfe,,,315212,22570,survey-text,,,"{""Q0"":""Not particularly"",""Q1"":""43"",""Q2"":""female""}",,,,,,,,,,,,,,,,
wfd168a1,,,633423,17974,survey-text,,,"{""Q0"":""I did not."",""Q1"":""22"",""Q2"":""female""}",,,,,,,,,,,,,,,,
w9681113,,,318955,23890,survey-text,,,"{""Q0"":""Not really.  Felt random."",""Q1"":""66"",""Q2"":""Male""}",,,,,,,,,,,,,,,,
w2eb8ffb,,,426266,71531,survey-text,,,"{""Q0"":""I'm not sure if I learned how to plan better, it really was more a matter of settling for the best I felt I could achieve. "",""Q1"":""23"",""Q2"":""Female""}",,,,,,,,,,,,,,,,
w913158b,,,2477890,35250,survey-text,,,"{""Q0"":""No, every time was different so I wasn't able to find a proper pattern"",""Q1"":""19"",""Q2"":""female""}",,,,,,,,,,,,,,,,
w0c4e953,,,532332,31470,survey-text,,,"{""Q0"":""This time it cost too much to click them all so I would go to the first one with a decent positive amount"",""Q1"":""42"",""Q2"":""female""}",,,,,,,,,,,,,,,,
wccecfea,,,573367,13259,survey-text,,,"{""Q0"":""I think they were all random."",""Q1"":""31"",""Q2"":""female""}",,,,,,,,,,,,,,,,
wda39b48,,,1003354,243886,survey-text,,,"{""Q0"":""At first i tried revealing the second to last \""stops\"" rather than the last ones (like i learned last time) but pretty soon I figured out it was still better to reveal the last ones first. I would reveal until I felt I had a good enough number and then continued on. If the number was okay but not great, I would weigh the cost of each click vs how good of a number I had already found and then would either try to find a better one or just \""fly the plane\"""",""Q1"":""28"",""Q2"":""Female""}",,,,,,,,,,,,,,,,
wfaaa4c5,,,821653,331183,survey-text,,,"{""Q0"":""This time around what I planned was to go to the first one I made more money on than clicking on all of them to see what's behind them. That way it will minimize the amount I lose instead."",""Q1"":""23"",""Q2"":""Nonbinary""}",,,,,,,,,,,,,,,,
wfa98644,,,444674,32033,survey-text,,,"{""Q0"":""I just went around randomly trying to find an ending that had a positive money flow.  "",""Q1"":""41"",""Q2"":""female""}",,,,,,,,,,,,,,,,
we233074,,,300729,26968,survey-text,,,"{""Q0"":""Try and figure out how you can make the most "",""Q1"":""33"",""Q2"":""Female""}",,,,,,,,,,,,,,,,
w3806f41,,,528997,101138,survey-text,,,"{""Q0"":""The map was bigger this time, and the costs higher... this was more of a practice is reducing cost than finding max gain. I went for penultimate nodes, then went for the highest green numbers and clicked around their trees, then trust that the path leading to them wouldn't be too impactful. Sometimes if I hit a decent pair fairly quickly, I could click around for more, but it wouldn't be worth the cost."",""Q1"":""32"",""Q2"":""Male""}",,,,,,,,,,,,,,,,
wfb54fff,,,279329,22607,survey-text,,,"{""Q0"":""No, it's mostly a game of luck in my opinion"",""Q1"":""18"",""Q2"":""Male""}",,,,,,,,,,,,,,,,
w55b7066,,,653909,41136,survey-text,,,"{""Q0"":""I learned that the value can be more than 48."",""Q1"":""18"",""Q2"":""Male""}",,,,,,,,,,,,,,,,
w81d3c41,,,432769,12461,survey-text,,,"{""Q0"":""Check all outlying nodes first"",""Q1"":""32"",""Q2"":""Male""}",,,,,,,,,,,,,,,,
w672b9ce,,,403428,33945,survey-text,,,"{""Q0"":""Revel circles to determine the best path"",""Q1"":""45"",""Q2"":""male""}",,,,,,,,,,,,,,,,
w9a8f6ff,,,457032,65588,survey-text,,,"{""Q0"":""It was a bit more complicated to figure out than yesterdays version since clicking cost more and the amount you could gain at the end varied more, so I feel like it relied a bit more on chance, but you could still kinda figure it out"",""Q1"":""19"",""Q2"":""Male""}",,,,,,,,,,,,,,,,
w0332285,,,572373,73240,survey-text,,,"{""Q0"":""It seems on some rounds the maximum positive outcome was significantly smaller than on others. I tried to get a sense of this after my first 5-10 clicks on terminal nodes."",""Q1"":""41"",""Q2"":""male""}",,,,,,,,,,,,,,,,
we6f3113,,,322362,9838,survey-text,,,"{""Q0"":""No"",""Q1"":""30"",""Q2"":""Male""}",,,,,,,,,,,,,,,,
w5143b4a,,,682701,48326,survey-text,,,"{""Q0"":""Yes"",""Q1"":""37"",""Q2"":""Female""}",,,,,,,,,,,,,,,,
wb5542cf,,,337540,15119,survey-text,,,"{""Q0"":""No"",""Q1"":""18"",""Q2"":""Female""}",,,,,,,,,,,,,,,,
we99b5b4,,,455143,17706,survey-text,,,"{""Q0"":""No I don't think I did"",""Q1"":""24"",""Q2"":""Female""}",,,,,,,,,,,,,,,,
w504e675,,,301522,35751,survey-text,,,"{""Q0"":""i love so much this game"",""Q1"":""24"",""Q2"":""male""}",,,,,,,,,,,,,,,,
w4a8429b,,,350550,65138,survey-text,,,"{""Q0"":""I learned how to plan around the issues of limited information and limited movement."",""Q1"":""20"",""Q2"":""Male""}",,,,,,,,,,,,,,,,
w4091bce,,,693847,69033,survey-text,,,"{""Q0"":""Learned to look at the most outward node values to help determine the best route."",""Q1"":""62"",""Q2"":""male""}",,,,,,,,,,,,,,,,
w5697380,,,479919,55004,survey-text,,,"{""Q0"":""Not really, it seemed totally random.  I thought my strategy of looking for the biggest number at the end seemed to work decently but I think I could have found a better way if I played more than 20 rounds."",""Q1"":""35"",""Q2"":""female""}",,,,,,,,,,,,,,,,
w12ddeff,,,528604,110328,survey-text,,,"{""Q0"":""Going into this, I thought I had from the previous task, but I didn't have any success. But now I'm thinking perhaps I should have clicked on the end nodes instead of the beginning since they were where the large amounts were. So yes I did learn to plan better, it just wasn't demonstrated in my performance. "",""Q1"":""37"",""Q2"":""Female""}",,,,,,,,,,,,,,,,
w4fdfaa8,,,358989,32284,survey-text,,,"{""Q0"":""I think so - just look for an acceptable exit and go for that one"",""Q1"":""46"",""Q2"":""male""}",,,,,,,,,,,,,,,,
w16958b6,,,448952,93969,survey-text,,,"{""Q0"":""Yes; as I went, I tried to hedge my bets by continuing to select nodes that presented an option closest to $50, up to 5 or 6 selections, before I began to move."",""Q1"":""40"",""Q2"":""Female""}",,,,,,,,,,,,,,,,
w6ab5ed9,,,637231,191662,survey-text,,,"{""Q0"":""Yes, I learned more about planning and how to anticipate movement in a game setting. "",""Q1"":""25"",""Q2"":""Female""}",,,,,,,,,,,,,,,,
w909b325,,,412302,41172,survey-text,,,"{""Q0"":""I clicked only on the bubbles in the corners instead of on the \""track.\"""",""Q1"":""19"",""Q2"":""Female""}",,,,,,,,,,,,,,,,
w73cfc09,,,351500,20810,survey-text,,,"{""Q0"":""Not really."",""Q1"":""37"",""Q2"":""Male""}",,,,,,,,,,,,,,,,
w7ecc99c,,,308576,30042,survey-text,,,"{""Q0"":""yes i had better money disposition than in stage 1"",""Q1"":""19"",""Q2"":""Male""}",,,,,,,,,,,,,,,,
w8883c2c,,,828572,123717,survey-text,,,"{""Q0"":""Yes, I learned how to better assess costs and risks"",""Q1"":""56"",""Q2"":""female""}",,,,,,,,,,,,,,,,
w3f028f3,,,629126,77382,survey-text,,,"{""Q0"":""The final \""destination\"" number was reliably the highest, so checking those was better than checking immediately right or left. "",""Q1"":""35"",""Q2"":""female""}",,,,,,,,,,,,,,,,
w85a5a53,,,370115,34409,survey-text,,,"{""Q0"":""I used my available nodes to get the best I could find"",""Q1"":""39"",""Q2"":""Female""}",,,,,,,,,,,,,,,,
w50785fe,,,385919,19501,survey-text,,,"{""Q0"":""none"",""Q1"":""21"",""Q2"":""male""}",,,,,,,,,,,,,,,,
wc60c79d,,,647172,38895,survey-text,,,"{""Q0"":""If I clicked on a high positive number, I just went to it rather than clicking to find the absolute highest number on the board"",""Q1"":""28"",""Q2"":""Female""}",,,,,,,,,,,,,,,,
wde70d7c,,,345949,22913,survey-text,,,"{""Q0"":""its too costly to click on all the end nodes"",""Q1"":""30"",""Q2"":""none of them / agender""}",,,,,,,,,,,,,,,,
w8f71810,,,326238,9055,survey-text,,,"{""Q0"":""no"",""Q1"":""25"",""Q2"":""girl""}",,,,,,,,,,,,,,,,
w60c57f3,,,464922,94833,survey-text,,,"{""Q0"":""I have to assess if looking for a larger end node is worth the cost of revealing the node. Sometimes it's better to simply take the first large end node."",""Q1"":""20"",""Q2"":""Man""}",,,,,,,,,,,,,,,,
wea39a49,,,329163,54535,survey-text,,,"{""Q0"":""I learned that it was important to always plan ahead, by clicking on the final destination panels. That was how I was able to gain a profit."",""Q1"":""24"",""Q2"":""Male""}",,,,,,,,,,,,,,,,
w32e624f,,,366705,23064,survey-text,,,"{""Q0"":""just kept going different ways to see if it was better results"",""Q1"":""44"",""Q2"":""female""}",,,,,,,,,,,,,,,,
w9089f6a,,,470796,60935,survey-text,,,"{""Q0"":""Yes, I learned to be more judicious with gains and make sure to capitalize on a sure threshold instead of paying for more information and ending up with less profit."",""Q1"":""32"",""Q2"":""Male""}",,,,,,,,,,,,,,,,
w64d60fc,,,316264,45782,survey-text,,,"{""Q0"":""not really, it was all a crap shoot"",""Q1"":""39"",""Q2"":""female""}",,,,,,,,,,,,,,,,
w3052d4f,,,499235,84128,survey-text,,,"{""Q0"":""Honestly, I did the same thing as the previous test. Revealed the nodes at the end until I found a number I licked and then just went to it. "",""Q1"":""23"",""Q2"":""Male""}",,,,,,,,,,,,,,,,
w04e39a4,,,294915,25066,survey-text,,,"{""Q0"":""No, I just tried my gut instinct and tried to get better as the game got along."",""Q1"":""35"",""Q2"":""Male""}",,,,,,,,,,,,,,,,
w803befa,,,587257,30288,survey-text,,,"{""Q0"":""Take fewer clues and you'll make more money."",""Q1"":""56"",""Q2"":""female""}",,,,,,,,,,,,,,,,
w6db0f97,,,907946,73821,survey-text,,,"{""Q0"":""Yes, I suck at this. But it was fun and exciting, not knowing what you were going to turn over."",""Q1"":""45"",""Q2"":""Female""}",,,,,,,,,,,,,,,,
w216da7e,,,393678,70876,survey-text,,,"{""Q0"":""Originally, I decided to only find the one good node out of the first three options and then just go randomly from there. However, I soon realized that I could afford to be much more conservative and spend a lot of money finding out the values of the end nodes since the payoff there was what, proportionally, would make the biggest difference."",""Q1"":""21"",""Q2"":"" Cishet male""}",,,,,,,,,,,,,,,,
w338a3d2,,,380891,55550,survey-text,,,"{""Q0"":""take a highest one i can find and go with that! no point wasting more money to find better options, because there are none. high scoring nodes are surrounded by low scoring ones, like minesweeper"",""Q1"":""34"",""Q2"":""male""}",,,,,,,,,,,,,,,,
w54499ba,,,548836,77782,survey-text,,,"{""Q0"":""Not to be greedy. For a while, it seemed the good ones were all in one place, but then, it seemed like they got more random. "",""Q1"":""46"",""Q2"":""Female""}",,,,,,,,,,,,,,,,
w1ba33d0,,,358196,28070,survey-text,,,"{""Q0"":""not to spend too much money looking at how much spaces are worth"",""Q1"":""22"",""Q2"":""Female""}",,,,,,,,,,,,,,,,
wadceaf5,,,492614,70414,survey-text,,,"{""Q0"":""YES -- I learned how to cut my losses by finding a route that would probably make me money and going for that rather than spending a ton of money to find the single route that would make the most but in the end would be less profitable since I spent so much money planning."",""Q1"":""47"",""Q2"":""female""}",,,,,,,,,,,,,,,,
wcf83aaf,,,439504,64305,survey-text,,,"{""Q0"":""To focus and move on never to be discouraged"",""Q1"":""32"",""Q2"":""male""}",,,,,,,,,,,,,,,,
w5957bc7,,,516798,97411,survey-text,,,"{""Q0"":""I learned I should have read the instructions better and played better for the last five rounds or so!  I suddenly thought that I had a maximum bonus of $.50, and that I should focus on not losing money for the last few rounds, so I didn't try to make money, only to avoid loss, and that was wrong!"",""Q1"":""42"",""Q2"":""F""}",,,,,,,,,,,,,,,,
wc7489d9,,,431080,27238,survey-text,,,"{""Q0"":""No. Too many options to get the full picture"",""Q1"":""38"",""Q2"":""male""}",,,,,,,,,,,,,,,,
w6304f4a,,,383154,87541,survey-text,,,"{""Q0"":""Not really &#8212; I just tried to click on several of the \""last\"" circles (the ones I would end up on) to see what their numbers were, so I would know which path/direction to take. It was all a guessing game, especially since I didn't want to use up too much of my money (the $3 with each number reveal)."",""Q1"":""22"",""Q2"":""Female""}",,,,,,,,,,,,,,,,
w2e1b41e,,,496311,55566,survey-text,,,"{""Q0"":""Yes, I realized that there were better routes to take and to weigh the amount I was spending on revealing with how much I would wind up with"",""Q1"":""37"",""Q2"":""Female""}",,,,,,,,,,,,,,,,
wc336e2f,,,353509,56770,survey-text,,,"{""Q0"":""Instead of wasting money uncovering all the options, I just learned to be satisfied with anything over $20. Rather than trying to optimize, I simply tried to satisfy and make any profit."",""Q1"":""22"",""Q2"":""male""}",,,,,,,,,,,,,,,,
w76c9181,,,351942,45142,survey-text,,,"{""Q0"":""Not really, I just kept clicking the outside ones. Sometimes if I got a +40 early I just went for that one instead of looking for a higher (+60) number, so I could save points."",""Q1"":""22"",""Q2"":""Male""}",,,,,,,,,,,,,,,,
wb19c9b2,,,447848,65548,survey-text,,,"{""Q0"":""I started to decide what was an acceptable profit verus gaining the most profit. Also that not accepting the best reasonable offer often cost money.\n"",""Q1"":""44"",""Q2"":""Female""}",,,,,,,,,,,,,,,,
wc1626b1,,,499612,139689,survey-text,,,"{""Q0"":""I used the same strategy as I did in the original task from the first study. In most instances, I chose to follow a route with an end result of $20 or more."",""Q1"":""31"",""Q2"":""Male""}",,,,,,,,,,,,,,,,
w8278843,,,490856,95908,survey-text,,,"{""Q0"":""Somewhat I think when planning you should look at all possible outcomes. This definitely differed from the first half since it cost more to the cost. At some points I didn't wanna lose anymore money so if I found something that was good enough I went to that route."",""Q1"":""20"",""Q2"":""Male""}",,,,,,,,,,,,,,,,
w3cf0b45,,,476366,132017,survey-text,,,"{""Q0"":""I try to click the end of each stem. If the end of the stem has a high number, there is a high chance of a positive or negative number. "",""Q1"":""25"",""Q2"":""Female""}",,,,,,,,,,,,,,,,
wb0048d6,,,463626,64772,survey-text,,,"{""Q0"":""I learned last time to only check the last circle. The only difference this time was the value could be more than 48, unlike last time. I usually chose the first thing I clicked that was above 20."",""Q1"":""25"",""Q2"":""female""}",,,,,,,,,,,,,,,,
wac459ac,,,377665,38733,survey-text,,,"{""Q0"":""No, I wasn't able to identify a pattern for this one beyond making sure my last move landed on a high value node."",""Q1"":""32"",""Q2"":""Male""}",,,,,,,,,,,,,,,,
we404ecf,,,356577,25737,survey-text,,,"{""Q0"":""A little, I clicked less losses and only focused on outer nodes"",""Q1"":""21"",""Q2"":""female""}",,,,,,,,,,,,,,,,
w2f7c465,,,740822,42519,survey-text,,,"{""Q0"":""always look for al possibilities and go for the best even if you lose a little bit in the journey"",""Q1"":""25"",""Q2"":""male""}",,,,,,,,,,,,,,,,
w7422809,,,669528,90126,survey-text,,,"{""Q0"":""yes, I learned not to open up all the destinations and to selectively pick which to open"",""Q1"":""20"",""Q2"":""female""}",,,,,,,,,,,,,,,,
wb2c69c8,,,337336,39449,survey-text,,,"{""Q0"":""Not really, I still used the same technique as last time, and I saw no reason to change. The chances of me losing money seemed about as equal as not picking a initial tile that would make me lose money"",""Q1"":""21"",""Q2"":""Male""}",,,,,,,,,,,,,,,,
wab416d7,,,396890,40822,survey-text,,,"{""Q0"":""Not really. I just randomly took my chance."",""Q1"":""43"",""Q2"":""Male""}",,,,,,,,,,,,,,,,
w9966dae,,,400829,58780,survey-text,,,"{""Q0"":""I clicked the reveal only the value of end-nodes instead of revealing nodes closest to me first and trying to reveal the entirety of the best path."",""Q1"":""23"",""Q2"":""prefer not to disclose""}",,,,,,,,,,,,,,,,
we4a987a,,,412882,52137,survey-text,,,"{""Q0"":""Sort of. I learned that the destination is crucial while making a plan, especially if that destination is a big reward or benefit."",""Q1"":""19"",""Q2"":""Male""}",,,,,,,,,,,,,,,,
w8af2d3c,,,487156,28590,survey-text,,,"{""Q0"":""I learned to click the end result of my path than click everything"",""Q1"":""20"",""Q2"":""Female""}",,,,,,,,,,,,,,,,
wb82f354,,,449654,31626,survey-text,,,"{""Q0"":""The profit is larger if you commit earlier to a path."",""Q1"":""54"",""Q2"":""F""}",,,,,,,,,,,,,,,,
wa77d5d7,,,421806,34618,survey-text,,,"{""Q0"":""Basically I just clicked the final destination and when something above 30 showed up, I went that way. "",""Q1"":""28"",""Q2"":""Female""}",,,,,,,,,,,,,,,,
w0a1ea49,,,319057,53285,survey-text,,,"{""Q0"":""I'm not really sure. I just clicked on ending spots to see which had a high positive so the path there wouldn't be lower than the ending spot."",""Q1"":""30"",""Q2"":""female""}",,,,,,,,,,,,,,,,
w2a77652,,,621523,37179,survey-text,,,"{""Q0"":""I clicked on the last circles I would land on"",""Q1"":""51"",""Q2"":""female""}",,,,,,,,,,,,,,,,
w9c62672,,,483684,34068,survey-text,,,"{""Q0"":""Sort of, to check each destination and go to the highest, but it might not be worth it to check all of them "",""Q1"":""24"",""Q2"":""female""}",,,,,,,,,,,,,,,,
