wid,rt,trial_type,button_pressed,stimulus,time_elapsed,view_history,responses,questions,correct,delays,score,actions,state_rewards,action_times,simulation_mode,path,trial_time,trial_id,queries,block,trial_index,rewards,prs,key_press
w12900a8,78960,survey-text,,,563583,,"{""Q0"":""Once you fin the 48 just go there "",""Q1"":""I would choose the best one for the total amount of years ""}",,,,,,,,,,,,,,,,,
w12900a8,101688,survey-text,,,666305,,"{""Q0"":""It doesn't matter how much it cost to get there as long as the end goal is more regarding than any of your losses "",""Q1"":""Wanting to go to medical school. Lots of sacrifices and student loans but the end is more regarding "",""Q2"":""Lots of sacrifices and student loans but the end is more regarding ""}",,,,,,,,,,,,,,,,,
w12900a8,7321,survey-text,,,690846,,"{""Q0"":""no "",""Q1"":""no ""}",,,,,,,,,,,,,,,,,
wb072c6a,95635,survey-text,,,341284,,"{""Q0"":""I think that it is in my best interest to click all of the options, however it is financially also a good decision to just click on the outer dots. Whichever is the highest is the way you should go because they are worth more than the first two stops."",""Q1"":""The lowest interest rates for the longest term (19 years) should theoretically prove the most beneficial.""}",,,,,,,,,,,,,,,,,
wb072c6a,75127,survey-text,,,417449,,"{""Q0"":""Smaller losses in the current day which lead to larger gains are sometimes necessary."",""Q1"":""I am very stressed out and tired from work but I know it means I will get a promotion in the next year."",""Q2"":""I am expending a lot of energy (similar to losing money) now, but I will be expending less energy (similar to the big gain at the end) in the future.""}",,,,,,,,,,,,,,,,,
wb072c6a,5452,survey-text,,,429535,,"{""Q0"":""No."",""Q1"":""No.""}",,,,,,,,,,,,,,,,,
w6658eb1,29165,survey-text,,,241292,,"{""Q0"":""Click on the final destination first"",""Q1"":""Compare the interest rates in the next 19 years""}",,,,,,,,,,,,,,,,,
w6658eb1,46238,survey-text,,,288538,,"{""Q0"":""Think long-term first"",""Q1"":""Think about your career goals before deciding your major, going to college, classes you take in high school."",""Q2"":""Think about the last step (career goals), then move backward from that.""}",,,,,,,,,,,,,,,,,
w6658eb1,5229,survey-text,,,303829,,"{""Q0"":""No"",""Q1"":""No""}",,,,,,,,,,,,,,,,,
wdb72bf5,41983,survey-text,,,427803,,"{""Q0"":""According to the \""intelligent trainer,\"" I can focus on the long term consequences first"",""Q1"":""I would focus on the interest rate for the next 19 years""}",,,,,,,,,,,,,,,,,
wdb72bf5,63615,survey-text,,,492435,,"{""Q0"":""Start at the destinations, and then work your way back"",""Q1"":""when starting a company, long term planning is important"",""Q2"":""There are different paths to long term success and long term failure, and once you identify destinations you want to reach, there are different costs (negative intermediate steps) in order to reach there, and the long term goals matter the most""}",,,,,,,,,,,,,,,,,
wdb72bf5,2169,survey-text,,,500853,,"{""Q0"":"""",""Q1"":""""}",,,,,,,,,,,,,,,,,
wb4e449a,124636,survey-text,,,866023,,"{""Q0"":""I'm not sure, but spending $1 per click to find the flight path that is $48 is worth it. "",""Q1"":""I would definitely choose the one that let me pay off the initial debt before applying it to the remainder. ""}",,,,,,,,,,,,,,,,,
wb4e449a,277219,survey-text,,,1144306,,"{""Q0"":""Sometimes you will try things that don't work. That's not a failure, it's experience and learning. Everyone does it. "",""Q1"":""When I was going to school I tried a few things before settling on my major. Now that I am thinking about going back for something completely different I have my past \""mistakes\"" to rely on. "",""Q2"":""I had a \""flight plan\"" in mind from a pretty young age and definitely had to revise it. ""}",,,,,,,,,,,,,,,,,
wb4e449a,66008,survey-text,,,1228955,,"{""Q0"":""No. "",""Q1"":""This was fun! I really look forward to tomorrow's HIT. ""}",,,,,,,,,,,,,,,,,
w80d4e65,376283,survey-text,,,800950,,"{""Q0"":""'Spending too much on clicks' seems nonsensical. Apparently there is only one click allowed per round, meaning you should always spend the dollar to learn something, and you cannot spend more than a dollar, so you can't 'spend too much' by over-clicking. There is no point in budgeting clicks. The rewards at the end are always greatest in absolute magnitude, so it seems to make sense to eliminate at least one potentially costly long-term route. \n\nIf the goal is to infuriate the player, the apparently random time penalty for a choice that I could not possibly know is incorrect is succeeding admirably. The 62-second cost almost made me quit the game."",""Q1"":""I'd choose largely based on the rates during the final 19 years. ""}",,,,,,,,,,,,,,,,,
w80d4e65,352359,survey-text,,,1154340,,"{""Q0"":""Spend time thinking about the long-term consequences of your decisions, rather than the short-term rewards."",""Q1"":""This study comes to mind. It would have been shortsighted to rage quit after the initial time delay penalty, since the long-term payoff of participating through 'til tomorrow will be considerably greater than the short term satisfaction of having 'told the game who's boss.'\n\nA better example might be paying off credit card debt. Making sacrifices in the paycheck now to make greater payments will yield greater savings in the long run than paying the minimum. The reward for planning further ahead is considerable."",""Q2"":""The greatest benefit comes in the long-term, from considering the final outcome.""}",,,,,,,,,,,,,,,,,
w80d4e65,147773,survey-text,,,1311820,,"{""Q0"":""Would have been nice to be warned about the time penalty. 62 seconds to start, with no clarification that after that time you would move the airplane, left me thinking I might've broken the game."",""Q1"":""""}",,,,,,,,,,,,,,,,,
wf2183c0,87149,survey-text,,,338786,,"{""Q0"":""Going with the first click if it was positive."",""Q1"":""first month""}",,,,,,,,,,,,,,,,,
wf2183c0,55639,survey-text,,,395446,,"{""Q0"":""It helps you see how decision making effects your life."",""Q1"":""Looking for jobs."",""Q2"":""Not all jobs are going to payoff in the end.""}",,,,,,,,,,,,,,,,,
wf2183c0,5638,survey-text,,,412110,,"{""Q0"":""no"",""Q1"":""""}",,,,,,,,,,,,,,,,,
w31b8dfe,97041,survey-text,,,599552,,"{""Q0"":""Make wise choices on which airports to click - get the most information with the least number of clicks"",""Q1"":""planning several steps ahead, do a calculation over the whole life of the loan, not just the first month or the first year""}",,,,,,,,,,,,,,,,,
w31b8dfe,139016,survey-text,,,739619,,"{""Q0"":""i learned how to plan ahead for the long term"",""Q1"":""I am planning on buying a car soon. As much as possible, I need to maximize my choice, not just up frot, but over the lie of the car"",""Q2"":""in Flight Planning, it pays to look at each step along the journey, not just the destination""}",,,,,,,,,,,,,,,,,
w31b8dfe,8793,survey-text,,,757171,,"{""Q0"":""No"",""Q1"":""No""}",,,,,,,,,,,,,,,,,
wc1e07f0,50662,survey-text,,,373722,,"{""Q0"":""Find the highest long term flight path"",""Q1"":""Find the one with the lowest rates for the most amount of time""}",,,,,,,,,,,,,,,,,
wc1e07f0,94619,survey-text,,,469349,,"{""Q0"":""Long term plans are more important for long term success"",""Q1"":""Taking a job with lower initial pay but the most in future earnings potential"",""Q2"":""The job that will eventually pay the most will reap you the most financial benifit""}",,,,,,,,,,,,,,,,,
wc1e07f0,7934,survey-text,,,485229,,"{""Q0"":""No"",""Q1"":""No""}",,,,,,,,,,,,,,,,,
wa86155a,70390,survey-text,,,371267,,"{""Q0"":""Click on the values on the outskirts--they seemed to have higher values."",""Q1"":""Whichever had the best long-term profit/saved the most money in the long run.""}",,,,,,,,,,,,,,,,,
wa86155a,87749,survey-text,,,460035,,"{""Q0"":""Focus on the benefits of your long term plan and be willing to take small losses/hits in the interim. "",""Q1"":""Choosing a mortgage."",""Q2"":""It is similar because I chose to pay a higher monthly payment in order to see a better long term profit.""}",,,,,,,,,,,,,,,,,
wa86155a,9437,survey-text,,,482022,,"{""Q0"":""No."",""Q1"":""No.""}",,,,,,,,,,,,,,,,,
we5c6276,282645,survey-text,,,1092850,,"{""Q0"":""Try to find a pattern "",""Q1"":""I would choose the 19 years one""}",,,,,,,,,,,,,,,,,
we5c6276,169594,survey-text,,,1263449,,"{""Q0"":""The bigger sacrifices you make the more you get"",""Q1"":""When i invest in stonks "",""Q2"":""You invest and hope to make more ""}",,,,,,,,,,,,,,,,,
we5c6276,6257,survey-text,,,1277665,,"{""Q0"":""no"",""Q1"":""""}",,,,,,,,,,,,,,,,,
w85af139,59931,survey-text,,,442983,,"{""Q0"":""varying the order that you check the airport values"",""Q1"":""Work out the interest rate that will provide the best value over the life of the loan""}",,,,,,,,,,,,,,,,,
w85af139,72830,survey-text,,,516823,,"{""Q0"":""To weigh out all the consequences of your actions by educating yourself"",""Q1"":""Purchasing a home and working out commutes, interest rates, maintenance, etc"",""Q2"":""You have to think of all the factors before making the correct decision""}",,,,,,,,,,,,,,,,,
w85af139,28883,survey-text,,,558461,,"{""Q0"":""I didnt manage to figure out why the tutor was telling me to take a different direction aside from most profitable airport"",""Q1"":""n/a""}",,,,,,,,,,,,,,,,,
wec68ec3,29487,survey-text,,,380033,,"{""Q0"":""Try to find the end result with the 48."",""Q1"":""Try to determine the best possible payouts""}",,,,,,,,,,,,,,,,,
wec68ec3,38587,survey-text,,,419647,,"{""Q0"":""Try to map out how things will work out and make choices that benefit you."",""Q1"":""Deciding on a vacation"",""Q2"":""You need to think about costs and what are some realistic options.""}",,,,,,,,,,,,,,,,,
wec68ec3,5025,survey-text,,,429698,,"{""Q0"":""NA"",""Q1"":""NA""}",,,,,,,,,,,,,,,,,
w9fb75c7,38647,survey-text,,,657070,,"{""Q0"":""Check the airports value"",""Q1"":""Calculate the loss over time""}",,,,,,,,,,,,,,,,,
w9fb75c7,70300,survey-text,,,728384,,"{""Q0"":""Weigh your options and determine which will be best for you in the long run"",""Q1"":""car loans"",""Q2"":""Calculating your wins and losses before making a decision""}",,,,,,,,,,,,,,,,,
w9fb75c7,3192,survey-text,,,739867,,"{""Q0"":"""",""Q1"":""""}",,,,,,,,,,,,,,,,,
wb06c29c,120610,survey-text,,,602468,,"{""Q0"":""You can carefully remember where some flight plans are and go there to them. It is a 50/50 chance you make money instead of lose."",""Q1"":""I would choose the middle loan. Because there is a 50/50 chance that it could be a good mortgage loan.""}",,,,,,,,,,,,,,,,,
wb06c29c,143068,survey-text,,,746558,,"{""Q0"":""I would explain to him that he needs to be careful with what plan he picks. He would have a 50/50 chance to lose money but a good chance at earning money as well."",""Q1"":""An example would be whether to buy this type of grocery or a knock off brand of grocery."",""Q2"":""It might be a little similar to the game.""}",,,,,,,,,,,,,,,,,
wb06c29c,9439,survey-text,,,766760,,"{""Q0"":""no"",""Q1"":""none""}",,,,,,,,,,,,,,,,,
w149de27,74839,survey-text,,,380661,,"{""Q0"":""Just clicking on the airport spaces until you find the 48 one. "",""Q1"":""I'd chose the one with different interest rates for the next 19 years. ""}",,,,,,,,,,,,,,,,,
w149de27,114981,survey-text,,,496664,,"{""Q0"":""Short term setbacks or rewards will have little difference to long term success. "",""Q1"":""Don't let myself get discouraged by small setbacks, but don't get complacent on short term success. Look at the overall bigger picture.  "",""Q2"":""I'd come across small wins and loses on my way to an overall win. ""}",,,,,,,,,,,,,,,,,
w149de27,2363,survey-text,,,519554,,"{""Q0"":"""",""Q1"":""""}",,,,,,,,,,,,,,,,,
w494e951,54164,survey-text,,,246260,,"{""Q0"":""Just click the final destination and see if it's positive or negative. "",""Q1"":""I would try to figure out the one that wouldn't be too much and would work for me I guess. ""}",,,,,,,,,,,,,,,,,
w494e951,40354,survey-text,,,287630,,"{""Q0"":""Check the final destination and go for the one that is positive. "",""Q1"":""I pick things that will help me better in life instead of ones that just make me feel good. "",""Q2"":""You want to get the best outcome. ""}",,,,,,,,,,,,,,,,,
w494e951,7321,survey-text,,,302041,,"{""Q0"":""No. It was very easy. "",""Q1"":""""}",,,,,,,,,,,,,,,,,
wda8a823,82892,survey-text,,,417875,,"{""Q0"":""I would click the end destination because that was typically the place where I would gain or lose the most. Then I would check the location before it and as long as it wasn't too costly, I would go there. "",""Q1"":""I would choose based on what the interest rates look like for the next 19 years.""}",,,,,,,,,,,,,,,,,
wda8a823,107839,survey-text,,,526720,,"{""Q0"":""You can plan for the long term or the short term, but there are consequences for both. "",""Q1"":""Planning out my whole day's schedule. If I think ahead to what I want to get done in the long term, I have a better chance of getting everything done in an efficient manner."",""Q2"":""It involves long-term planning, but could also be done by just thinking about immediate goals.""}",,,,,,,,,,,,,,,,,
wda8a823,4967,survey-text,,,539871,,"{""Q0"":""No"",""Q1"":""No""}",,,,,,,,,,,,,,,,,
w14aa0fc,84339,survey-text,,,506530,,"{""Q0"":""click on 2 and choose the one with the better reward"",""Q1"":""The one where you end up better off in the end would be the best choice""}",,,,,,,,,,,,,,,,,
w14aa0fc,100300,survey-text,,,607950,,"{""Q0"":""Choose the better reward"",""Q1"":""Shopping for grocery sales"",""Q2"":""The store with the lowest prices overall would be the best to shop as opposed to shopping at several different stores. You would save more money and use less time""}",,,,,,,,,,,,,,,,,
w14aa0fc,29955,survey-text,,,650462,,"{""Q0"":""The delay was confusing. I do not remember being told to go a certain way in the directions"",""Q1"":""no""}",,,,,,,,,,,,,,,,,
wd656ff6,25049,survey-text,,,531501,,"{""Q0"":""click outside until find 48"",""Q1"":""19 years""}",,,,,,,,,,,,,,,,,
wd656ff6,44418,survey-text,,,576929,,"{""Q0"":""Click on the outside to get 48"",""Q1"":""In the task tomorrow "",""Q2"":""It is the same thing unless I read the instructions incorrectly""}",,,,,,,,,,,,,,,,,
wd656ff6,75460,survey-text,,,673083,,"{""Q0"":""In the instruction phase, it says \""use the arrows to move\"" to show that we will be using the arrows to move the plane in the future as well as to show that the arrows are meant to advance the page. Make it clear that the first instruction will not move the plane."",""Q1"":""""}",,,,,,,,,,,,,,,,,
w214beb3,70327,survey-text,,,296504,,"{""Q0"":""Click on the final destinations first because they tend to lose or win the most money while the in-between stops lose or gain only a few dollars."",""Q1"":""I would plan based half on what I could afford now and half based on what I could afford long-term.""}",,,,,,,,,,,,,,,,,
w214beb3,93168,survey-text,,,390679,,"{""Q0"":""It can be smart to invest some money/resources in order to determine whether long-term outcomes are favorable."",""Q1"":""Buying a brand of expensive clothing for cheap secondhand to determine whether it fits me before buying it full-price."",""Q2"":""I invested a small amount of money up front to help me decide if it would be worth it to make a decision to buy the clothing full price later.""}",,,,,,,,,,,,,,,,,
w214beb3,7894,survey-text,,,405639,,"{""Q0"":""No!"",""Q1"":""No!""}",,,,,,,,,,,,,,,,,
we4ca367,198527,survey-text,,,712933,,"{""Q0"":""Find the flight plan that has a short destination. Each space could be a big gain or a small loss. Since it varies each time there really isn't a way to increase your chances."",""Q1"":""You want to be able to choose the option that is in your best interest. By writing it out and viewing it you can plan what would be the better option for you.""}",,,,,,,,,,,,,,,,,
we4ca367,127438,survey-text,,,841383,,"{""Q0"":""Gather all the information you can to make the best choice."",""Q1"":""Choosing between 2 jobs. No matter the route you take, there will be positive impacts and negative impacts. "",""Q2"":""Planning is important in both scenarios.\n ""}",,,,,,,,,,,,,,,,,
we4ca367,107532,survey-text,,,968845,,"{""Q0"":""The only confusing part was when i would click a gray circle to see the destination $, sometimes It would tell me to click on many or it would tell me I should have clicked a set."",""Q1"":""I'm ready to continue tomorrow!""}",,,,,,,,,,,,,,,,,
w98f1b0c,156253,survey-text,,,588899,,"{""Q0"":""Click the last airport of each possible path, looking for the max profit $48 one, and go to it."",""Q1"":""Only consider the final 19 year rate, the others are irrelevant. ""}",,,,,,,,,,,,,,,,,
w98f1b0c,135941,survey-text,,,725872,,"{""Q0"":""Decide where you want to go in the long term then do what is required to get there. "",""Q1"":""Deciding on a career path to pursue. "",""Q2"":""I need to decide on my long term goals and from those figure out near and moderate term goals. ""}",,,,,,,,,,,,,,,,,
w98f1b0c,19599,survey-text,,,756190,,"{""Q0"":""no"",""Q1"":""""}",,,,,,,,,,,,,,,,,
w6178ba1,48953,survey-text,,,415279,,"{""Q0"":""Looking at the final spot"",""Q1"":""The remainder of the first year.""}",,,,,,,,,,,,,,,,,
w6178ba1,65666,survey-text,,,482025,,"{""Q0"":""Your short term plan will affect the long term."",""Q1"":""Budget planning."",""Q2"":""What I budget now will affect how much money I have later.""}",,,,,,,,,,,,,,,,,
w6178ba1,15591,survey-text,,,506791,,"{""Q0"":""N/A"",""Q1"":""N/A""}",,,,,,,,,,,,,,,,,
w15919cb,114970,survey-text,,,451745,,"{""Q0"":""Know that the max is +48 so once I found that number I should go there instead of using click for more info."",""Q1"":""Optimize the rates so I can get the best deal at the end.""}",,,,,,,,,,,,,,,,,
w15919cb,138169,survey-text,,,590936,,"{""Q0"":""Find the best outcome with the limited info you have, take a chance and take action instead of waiting for something that may never come."",""Q1"":""Taking a risk to go back to school for future higher income"",""Q2"":""I have limited info on future job outlook but used the best info I have to work out a plan to optimize my outcomes.""}",,,,,,,,,,,,,,,,,
w15919cb,6047,survey-text,,,605046,,"{""Q0"":""no"",""Q1"":""no""}",,,,,,,,,,,,,,,,,
w40735d7,76074,survey-text,,,408041,,"{""Q0"":""You can look at the terminal locations to see how much you will gain or lose by going there. "",""Q1"":""I would want to know what the long term mortgage rates would be as they would have the most impact. ""}",,,,,,,,,,,,,,,,,
w40735d7,86853,survey-text,,,495906,,"{""Q0"":""To try to see the long term consequences of their choices. "",""Q1"":""Probably when we were taking out a mortgage or making a large purchase. "",""Q2"":""You can look at the long term effects of how you will be financially affected.  ""}",,,,,,,,,,,,,,,,,
w40735d7,9696,survey-text,,,516720,,"{""Q0"":""No. "",""Q1"":""None. ""}",,,,,,,,,,,,,,,,,
w8cac3b3,133205,survey-text,,,1099848,,"{""Q0"":""follow the arrows and try to make short term decisions and hope they are good ones. "",""Q1"":""I would choose by finding the one that has the same interest rate for the longest length of time. So in this instance , it would be the 19 years. It's best to have your interest rate remain the same, despite if it is the cheapest at the beginning or not. Go with what will remain the same throughout the entire length of the loan (if possible) ""}",,,,,,,,,,,,,,,,,
w8cac3b3,138405,survey-text,,,1239265,,"{""Q0"":"" Don't be afraid to make spur of the moment decisions, because sometimes they will be better than you hoped! However, keep in mind that it is best to think about your \""flight plan\"" and be prepared as much as possible. "",""Q1"":""When deciding to get a mortgage loan. "",""Q2"":""Each bank you apply through will have different mortgage payments, interest rates, and loan durations. You have to research as much as possible and decide which path (bank loan) is best for you . ""}",,,,,,,,,,,,,,,,,
w8cac3b3,32466,survey-text,,,1277432,,"{""Q0"":""A little bit confusing as to how I kept clicking the wrong arrows. "",""Q1"":""All in all, this one was fun to take. Thanks! ""}",,,,,,,,,,,,,,,,,
wa9240d6,160210,survey-text,,,970656,,"{""Q0"":""Clicking the last destination circles saves time. In other words, getting to the bottom line without much fuss "",""Q1"":""I would consult my wife because she is better at math than me. But I would look at which plan savesme the most money in the end""}",,,,,,,,,,,,,,,,,
wa9240d6,83266,survey-text,,,1054928,,"{""Q0"":""What matter is the journey and end result and not how you got there"",""Q1"":""This might work well when choosing a diet plan"",""Q2"":""You have to look at the end results. Is it profitable or beneficial""}",,,,,,,,,,,,,,,,,
wa9240d6,18814,survey-text,,,1080007,,"{""Q0"":""no"",""Q1"":""no""}",,,,,,,,,,,,,,,,,
web8ffb5,72585,survey-text,,,531850,,"{""Q0"":""I sincerely have no idea. I want my life to be full of surprises. I detest predictability."",""Q1"":""I would trust my guts and pick the mortgage with a smaller APR.""}",,,,,,,,,,,,,,,,,
web8ffb5,94955,survey-text,,,627839,,"{""Q0"":""I would not use this menial game to base my life on."",""Q1"":""I can't remember an example right now. "",""Q2"":""I do not see the importance of this game. I would not take this game as an example to base my life and my future. ""}",,,,,,,,,,,,,,,,,
web8ffb5,9734,survey-text,,,649570,,"{""Q0"":""No."",""Q1"":""No.""}",,,,,,,,,,,,,,,,,
wa93d8e1,50765,survey-text,,,423393,,"{""Q0"":""Focus on the ending spots to know which destination has has the most points "",""Q1"":""Thinking long term""}",,,,,,,,,,,,,,,,,
wa93d8e1,90431,survey-text,,,514860,,"{""Q0"":""Long term planning provides the greatest results based of flight planning "",""Q1"":""Deciding on which credit card to apply for "",""Q2"":""you have to strategize to get the highest score possible ""}",,,,,,,,,,,,,,,,,
wa93d8e1,8813,survey-text,,,532333,,"{""Q0"":""Not at all"",""Q1"":""N/A""}",,,,,,,,,,,,,,,,,
w18740cf,42597,survey-text,,,575610,,"{""Q0"":""I have no idea"",""Q1"":""look for the cheapest interest rates""}",,,,,,,,,,,,,,,,,
w18740cf,28975,survey-text,,,605599,,"{""Q0"":""I have no idea"",""Q1"":""I don't know"",""Q2"":""it's not""}",,,,,,,,,,,,,,,,,
w18740cf,10460,survey-text,,,621464,,"{""Q0"":""no"",""Q1"":""no""}",,,,,,,,,,,,,,,,,
wc3146ce,79345,survey-text,,,802093,,"{""Q0"":""Create a good plan for how you are going to use your clicks to maximize your chances to get the best flight plan."",""Q1"":""The best rate for the next 19 years as it is the best for me in the long run""}",,,,,,,,,,,,,,,,,
wc3146ce,65397,survey-text,,,868493,,"{""Q0"":""Figure out what your end goal is and the best path to get there."",""Q1"":""Where I want to be in my career in 10 years."",""Q2"":""Figuring out my best path to get to my goals""}",,,,,,,,,,,,,,,,,
wc3146ce,13282,survey-text,,,891330,,"{""Q0"":""No"",""Q1"":""It was fun!""}",,,,,,,,,,,,,,,,,
wc5e4d33,41090,survey-text,,,266276,,"{""Q0"":""Try to find the highest final value which would most likely not cost too much."",""Q1"":""I would choose the one with the best final interest rate.""}",,,,,,,,,,,,,,,,,
wc5e4d33,67816,survey-text,,,335107,,"{""Q0"":""The short term goals in life matter but in the end the long term goal is what effects the most."",""Q1"":""Deciding what kind of job to go for."",""Q2"":""I should choose a job that has the best plan for me long term.""}",,,,,,,,,,,,,,,,,
wc5e4d33,5726,survey-text,,,350899,,"{""Q0"":""No"",""Q1"":""No""}",,,,,,,,,,,,,,,,,
w779cc78,30500,survey-text,,,402251,,"{""Q0"":""Click the long term goal"",""Q1"":""Clicking on the long term goal""}",,,,,,,,,,,,,,,,,
w779cc78,80471,survey-text,,,483780,,"{""Q0"":""Take your time and plan your clicks accordingly"",""Q1"":""Grocery Shopping"",""Q2"":""planning out a short term budget to create a long term food storage plan""}",,,,,,,,,,,,,,,,,
w779cc78,6926,survey-text,,,500426,,"{""Q0"":""No"",""Q1"":""No""}",,,,,,,,,,,,,,,,,
wffe6e63,136328,survey-text,,,659887,,"{""Q0"":""Clicking on the destinations and avoiding the negative ones."",""Q1"":""Depending on how much it would end up costing me at the end.""}",,,,,,,,,,,,,,,,,
wffe6e63,90078,survey-text,,,751005,,"{""Q0"":""Always plan for the final result."",""Q1"":""Choosing a career."",""Q2"":""Comparing how much you would end up getting paid for each career and choosing the highest one.""}",,,,,,,,,,,,,,,,,
wffe6e63,11731,survey-text,,,774849,,"{""Q0"":""No"",""Q1"":""""}",,,,,,,,,,,,,,,,,
w4e3fba9,38887,survey-text,,,258401,,"{""Q0"":""Learn where the highest numbers are and check there first."",""Q1"":""It would depend on what the rate for the longest period was.""}",,,,,,,,,,,,,,,,,
w4e3fba9,34306,survey-text,,,293727,,"{""Q0"":""That sometimes taking a hit now for a bigger pay off in the end is worth it."",""Q1"":""Taking out loans for school"",""Q2"":""I had to decide how much debt was worth my future earning potential.""}",,,,,,,,,,,,,,,,,
w4e3fba9,2070,survey-text,,,303149,,"{""Q0"":"""",""Q1"":""""}",,,,,,,,,,,,,,,,,
wd6c841c,97173,survey-text,,,628168,,"{""Q0"":""Make educated guesses about where the $48 will appear"",""Q1"":""Look at the long term cost and choose the one that costs the least interest over the life of the loan""}",,,,,,,,,,,,,,,,,
wd6c841c,82063,survey-text,,,711515,,"{""Q0"":""Think about long term consequences"",""Q1"":""Holding stock until it matures"",""Q2"":""Looking at future outcomes is important""}",,,,,,,,,,,,,,,,,
wd6c841c,5429,survey-text,,,726237,,"{""Q0"":""no"",""Q1"":""no""}",,,,,,,,,,,,,,,,,
w38cc0d1,59702,survey-text,,,604812,,"{""Q0"":""Try to pay attention to patterns and be lucky. "",""Q1"":""I would try to chose the most consistent one. ""}",,,,,,,,,,,,,,,,,
w38cc0d1,108272,survey-text,,,714094,,"{""Q0"":""Pay attention so you don't keep making the same mistakes."",""Q1"":""I kept making mistakes and getting lost going to my friends house.  I paid attention to where I needed to make my turns and figured it out. "",""Q2"":""Keep focused and you will get there. ""}",,,,,,,,,,,,,,,,,
w38cc0d1,6820,survey-text,,,731509,,"{""Q0"":""no"",""Q1"":""no""}",,,,,,,,,,,,,,,,,
wa63c247,81390,survey-text,,,840328,,"{""Q0"":""when the path is profitable just take it without trying to wonder what else there could be"",""Q1"":""take the whatever is more profitable""}",,,,,,,,,,,,,,,,,
wa63c247,79861,survey-text,,,921204,,"{""Q0"":""dont worry too much about what else might be out there"",""Q1"":""when choosing between new job offers"",""Q2"":""there may be parts that you lose money in comparison, but the end goal is money  making""}",,,,,,,,,,,,,,,,,
wa63c247,13921,survey-text,,,944735,,"{""Q0"":""no"",""Q1"":""no""}",,,,,,,,,,,,,,,,,
wc3d7f02,51826,survey-text,,,524544,,"{""Q0"":""Thinking a little before hand about previous flight plans."",""Q1"":""I would choose for the next 19 years because at this time I would be making less profitable choices.""}",,,,,,,,,,,,,,,,,
wc3d7f02,108791,survey-text,,,634342,,"{""Q0"":""Think cleverly and take a moment to process what the point is."",""Q1"":""With work and how I have yet to decide on what job I want."",""Q2"":""Life is a journey where you constantly make choices and in Flight Planning, you constantly making choices.""}",,,,,,,,,,,,,,,,,
wc3d7f02,2456,survey-text,,,649397,,"{""Q0"":"""",""Q1"":""""}",,,,,,,,,,,,,,,,,
wa7223c9,76272,survey-text,,,377148,,"{""Q0"":""Looking at the long term values is the best option"",""Q1"":""I would choose the one that gave the best value overall""}",,,,,,,,,,,,,,,,,
wa7223c9,151637,survey-text,,,529816,,"{""Q0"":""Focus on the long term goals "",""Q1"":""Investing in certain things for the future"",""Q2"":""Focusing on the end result yields better rewards""}",,,,,,,,,,,,,,,,,
wa7223c9,6369,survey-text,,,548896,,"{""Q0"":""No"",""Q1"":""No""}",,,,,,,,,,,,,,,,,
wbe3ee2f,192405,survey-text,,,757415,,"{""Q0"":""I can avoid much hoping after finding some positive airport"",""Q1"":""I will chose 1s one""}",,,,,,,,,,,,,,,,,
wbe3ee2f,118625,survey-text,,,877061,,"{""Q0"":""i learned that dont expect too high it can costly"",""Q1"":""Don't expect too high it can costly"",""Q2"":""same idea everywhere""}",,,,,,,,,,,,,,,,,
wbe3ee2f,14637,survey-text,,,904914,,"{""Q0"":""no"",""Q1"":""That was fun""}",,,,,,,,,,,,,,,,,
w26c2c7b,70177,survey-text,,,452525,,"{""Q0"":""Look at previous patterns and choose a new route."",""Q1"":""Go for the longer term of 19 years.""}",,,,,,,,,,,,,,,,,
w26c2c7b,229333,survey-text,,,682878,,"{""Q0"":""Look through your options and choose the path most beneficial in the long term. Don't take shortcuts."",""Q1"":""When I'm stuck doing the same thing over and over and don't get good enough results."",""Q2"":""In my life, doing the same thing over and over doesn't always produce the best result each time. I should be more willing to try new paths.""}",,,,,,,,,,,,,,,,,
w26c2c7b,6192,survey-text,,,701229,,"{""Q0"":""No"",""Q1"":""""}",,,,,,,,,,,,,,,,,
w5f37dee,70945,survey-text,,,272464,,"{""Q0"":""limit options based and only click on positive paths, once final bonus of 48 is identified go for it as the gain is higher than any smaller negatives that may be on the way"",""Q1"":""Analyze the interest rates for each step, compare overall""}",,,,,,,,,,,,,,,,,
w5f37dee,52754,survey-text,,,326253,,"{""Q0"":""look towards destination to know if path (regardless of ups and downs on the way there) is worth it"",""Q1"":""long term career planning"",""Q2"":""might need to sacrifice time/less salary/etc in the short term but can be worth it if you have a targeted outcome (""}",,,,,,,,,,,,,,,,,
w5f37dee,2523,survey-text,,,336620,,"{""Q0"":""no"",""Q1"":""no""}",,,,,,,,,,,,,,,,,
wf766f9e,12255,survey-text,,,295280,,"{""Q0"":"""",""Q1"":""""}",,,,,,,,,,,,,,,,,
wf766f9e,7576,survey-text,,,303863,,"{""Q0"":"""",""Q1"":"""",""Q2"":""""}",,,,,,,,,,,,,,,,,
wf766f9e,2951,survey-text,,,331455,,"{""Q0"":"""",""Q1"":""""}",,,,,,,,,,,,,,,,,
w41dfe98,84043,survey-text,,,420384,,"{""Q0"":""Click on the edge destinations until u find one with $48 and then go to that one. "",""Q1"":""I would choose the one where I pay the lowest amount of interest over the life of the loan.""}",,,,,,,,,,,,,,,,,
w41dfe98,63679,survey-text,,,485126,,"{""Q0"":""Choose the option that gives you the best chance of success in the long term."",""Q1"":""Furthering one's education to increase job prospects and income. "",""Q2"":""It makes one choose the best decision to get where they are going. ""}",,,,,,,,,,,,,,,,,
w41dfe98,2446,survey-text,,,497382,,"{""Q0"":"""",""Q1"":""""}",,,,,,,,,,,,,,,,,
w00873a8,34276,survey-text,,,272477,,"{""Q0"":""Just check the final location value"",""Q1"":""Look at the interest rate for the final 19 years""}",,,,,,,,,,,,,,,,,
w00873a8,42543,survey-text,,,316073,,"{""Q0"":""Don't get stuck in the short term"",""Q1"":""The current crazy stock market"",""Q2"":""The short term is very enticing, but stick to the long term plan""}",,,,,,,,,,,,,,,,,
w00873a8,8574,survey-text,,,331700,,"{""Q0"":""no"",""Q1"":""This was a lot of fun""}",,,,,,,,,,,,,,,,,
w0cdbe34,81349,survey-text,,,570284,,"{""Q0"":""I started to pick the outermost areas to see the value rather than all the areas"",""Q1"":""See what the rates are for the final 19 years""}",,,,,,,,,,,,,,,,,
w0cdbe34,95931,survey-text,,,667227,,"{""Q0"":""Look at the objective and destination. There may be up and downs but to pursue the path with the largest reward"",""Q1"":""Go back to school or take a job with less pay to get valuable training that would reward you later in life."",""Q2"":""Again, look at the destination and goal vs the path to get there.""}",,,,,,,,,,,,,,,,,
w0cdbe34,3060,survey-text,,,678938,,"{""Q0"":"""",""Q1"":""""}",,,,,,,,,,,,,,,,,
wec30174,74010,survey-text,,,426719,,"{""Q0"":""Figure out which destination pays the most"",""Q1"":""Take the hit up front and get the best one that will benefit for the last 19 years""}",,,,,,,,,,,,,,,,,
wec30174,97096,survey-text,,,524831,,"{""Q0"":""You will take a hit up front but in the end it will be worth it"",""Q1"":""Getting my foot in the door at a job even though it wasn't the best, in order to set me up for a future job that will be greater in the long run(where I'm at now)"",""Q2"":""You sacrifice up front but in the long run it works out and is more beneficial ""}",,,,,,,,,,,,,,,,,
wec30174,12862,survey-text,,,543151,,"{""Q0"":""No"",""Q1"":""The game was enjoyable""}",,,,,,,,,,,,,,,,,
w3353e38,84351,survey-text,,,538815,,"{""Q0"":""Randomly select two airports in different corners and hope that one of them is good. If not a good mark then choose one more in another area and hopefully it works out. Be mindful of each click."",""Q1"":""I would try and tackle the one with the highest interest rate first because it will only keep getting higher if I do not address it.""}",,,,,,,,,,,,,,,,,
w3353e38,122456,survey-text,,,662283,,"{""Q0"":""You win some and you lose some. You will not come out with lots of money each round, but with each round you will get a feel for what they are expecting and should do better each time."",""Q1"":""Going on dates with people I meet online, most of them will be random and unexpected but you will get to meet some really great people out there!"",""Q2"":""Unsure of where it will lead you so you just need to keep trying and hope you get someone good. Don't give up!""}",,,,,,,,,,,,,,,,,
w3353e38,8524,survey-text,,,677802,,"{""Q0"":""nope"",""Q1"":""no""}",,,,,,,,,,,,,,,,,
w5a75905,42460,survey-text,,,555726,,"{""Q0"":""Look at the low level consequences first."",""Q1"":""I would choose by looking at all the rates side by side.""}",,,,,,,,,,,,,,,,,
w5a75905,98185,survey-text,,,654921,,"{""Q0"":""I don't really feel as though I learned anything new here, except that actions have consequences--sometimes unforeseeable."",""Q1"":""Picking a career"",""Q2"":""you pick something and have to go through the steps to get to the end. ""}",,,,,,,,,,,,,,,,,
w5a75905,11060,survey-text,,,678507,,"{""Q0"":""n/a"",""Q1"":""n/a""}",,,,,,,,,,,,,,,,,
w303e045,111200,survey-text,,,445048,,"{""Q0"":""You can increase your chances by finding a pattern to where the most money in a landing is. By finding the positives you know you are closer to being on the right track to the bigger money and staying away from the negatives."",""Q1"":""I would choose based on how much it would cost me in the long run based on the rates.""}",,,,,,,,,,,,,,,,,
w303e045,88948,survey-text,,,535056,,"{""Q0"":""I would describe the flight plan as choosing between negative and positive steps. The tiny negatives are only minor setbacks to the more positive to come. "",""Q1"":""It would work well for me now as I am deciding what to do with my career and my own life at the moment."",""Q2"":""By planning what I am going to say before for I say it.""}",,,,,,,,,,,,,,,,,
w303e045,17097,survey-text,,,564780,,"{""Q0"":""Not at all. Everything was very clear."",""Q1"":""Really enjoyed this!""}",,,,,,,,,,,,,,,,,
w14755fd,109632,survey-text,,,750434,,"{""Q0"":""I don't really think there was a sure fire plan to know exactly what route I should have taken without first clicking to unveil it so I had to put minimal risk to reveal the unknown then choose the best highing payer route at the end. Once, revealed"",""Q1"":""I would choose the plan with the better rates mid term and long term. ""}",,,,,,,,,,,,,,,,,
w14755fd,91292,survey-text,,,842805,,"{""Q0"":""I would tell them to think long term and take the minimal risk short term to achieve their goals."",""Q1"":""I would think of my long term goals and see how much I would gain from the short term goal risks"",""Q2"":""I have to think far ahead in my life""}",,,,,,,,,,,,,,,,,
w14755fd,28811,survey-text,,,887878,,"{""Q0"":""No"",""Q1"":""The game was a little delayed on arrow key responses but otherwise worked fine.""}",,,,,,,,,,,,,,,,,
wb48b3ac,66231,survey-text,,,566686,,"{""Q0"":""Once you find a positive reward at an airport, moving there will keep you from spending more money on clicks."",""Q1"":""I would choose to know the interest rate for the later years to see what the trend would be.""}",,,,,,,,,,,,,,,,,
wb48b3ac,260473,survey-text,,,828198,,"{""Q0"":""I would tell a friend that learning as much necessary information as possible would help to make the best decision for the end goal. Taking a small loss is worth it if you reach the optimal overall outcome. (net positive)"",""Q1"":""I know that getting information about side effects, health and wellness early can help to make a person's quality of life more enjoyable in the long run, even at the expense of some comfort or convenience early on."",""Q2"":""This is similar to the game because you have to make choices based on limited information that may include losses early (difficult times) but will pay off in the end.""}",,,,,,,,,,,,,,,,,
wb48b3ac,4910,survey-text,,,843913,,"{""Q0"":""no"",""Q1"":""n/a""}",,,,,,,,,,,,,,,,,
wd43d838,35561,survey-text,,,345861,,"{""Q0"":""Don't focus on the short term gains, focus on the mid or long term gains"",""Q1"":""Focus on the interest rate that is best over the 19 year span""}",,,,,,,,,,,,,,,,,
wd43d838,49538,survey-text,,,396427,,"{""Q0"":""Focus on long term goals first"",""Q1"":""Becoming a physician and focusing on the end goal, rather than the small details"",""Q2"":""Both have consequences between only focusing on the short term versus the long term goals""}",,,,,,,,,,,,,,,,,
wd43d838,4530,survey-text,,,409149,,"{""Q0"":""No"",""Q1"":""""}",,,,,,,,,,,,,,,,,
we404de8,42802,survey-text,,,598185,,"{""Q0"":""Once you find the destination with the profit of 48, you don't need to click the rest of the destinations"",""Q1"":""First""}",,,,,,,,,,,,,,,,,
we404de8,60153,survey-text,,,659360,,"{""Q0"":""Sometimes, on the way to a good reward, you suffer some losses"",""Q1"":""Powering through not so fun tasks to get a reward (good grade, promotion, etc.)"",""Q2"":""Not always is the trip to the destination pleasant the entire way.""}",,,,,,,,,,,,,,,,,
we404de8,3010,survey-text,,,667456,,"{""Q0"":""No"",""Q1"":""No""}",,,,,,,,,,,,,,,,,
w1dcfaef,95338,survey-text,,,394035,,"{""Q0"":""Start by looking at the last node in a flight plan until you find the highest amount."",""Q1"":""I would evaluate which is the best for me long term, choosing the best rates in the long run. ""}",,,,,,,,,,,,,,,,,
w1dcfaef,245308,survey-text,,,640349,,"{""Q0"":""They need to plan where they want to end up, so they can figure out the best way to get there. "",""Q1"":""An example of this type of decision is how I got into my field of work. It started off by choosing to go to a technical school. At the time, I was just getting interested in my field. I didn't fully know where it would lead over time, but knew I wanted to work in my field. I am working in my field now."",""Q2"":""I had to plan ahead looking for where I wanted to end up, and make plans and changes accordingly.""}",,,,,,,,,,,,,,,,,
w1dcfaef,6339,survey-text,,,659960,,"{""Q0"":""No"",""Q1"":""No""}",,,,,,,,,,,,,,,,,
wcee1350,153999,survey-text,,,487811,,"{""Q0"":""See what the first and last flights are priced at. This would normally show whether it would be a gain or loss in total flight time."",""Q1"":""Would choose a middle ground or options that balances the cost and losses. ""}",,,,,,,,,,,,,,,,,
wcee1350,187765,survey-text,,,676583,,"{""Q0"":""I would explain that you need to plan it out and keep your final objective in sights. "",""Q1"":""Saving funds for a long term purchase or using borrowed money. "",""Q2"":""You could either plan out how you would raise the funds or save them or getting a loan and being put into a debt. ""}",,,,,,,,,,,,,,,,,
wcee1350,23393,survey-text,,,715026,,"{""Q0"":""Was explained very well!"",""Q1"":""None!""}",,,,,,,,,,,,,,,,,
w674b109,150105,survey-text,,,460410,,"{""Q0"":""Search the final destinations to find the most profitable final destination."",""Q1"":""I would choose the loan that had the lowest interest rate for the next 19 years, as the final destination in the flight simulator is what had the greatest impact on the amount of money I made.""}",,,,,,,,,,,,,,,,,
w674b109,259184,survey-text,,,720601,,"{""Q0"":""I would explain to the friend that everyone goes through little setbacks during their life, but the important thing is to plan for your endgame. For example, It may be okay to take out a student loan, if in the next 40 years of your life, you will be making a substantial amount of money."",""Q1"":""An example from my own life where this may work is that I have taken nearly $20,000 in student loans, but in the future, I can expect to earn nearly $100,000/year, compared to the $40,000 I am currently earning."",""Q2"":""This is similar to the flight planning game because I had to take some monetary setbacks at first, but in the end, I am making more money.""}",,,,,,,,,,,,,,,,,
w674b109,30708,survey-text,,,764049,,"{""Q0"":""No"",""Q1"":""I actually really enjoyed the game, and think it is a great tool to teach some good lessons!""}",,,,,,,,,,,,,,,,,
w7ed72a3,81777,survey-text,,,718252,,"{""Q0"":""I first try to see where the big payoff is, at the further airports.  Then once I know where the big payoff is I can determine the best route."",""Q1"":""I would see which I can pay off the quickest with the lowest interest rates.""}",,,,,,,,,,,,,,,,,
w7ed72a3,88472,survey-text,,,807747,,"{""Q0"":""It's a great way to show you how to find the maximum payoff by choosing the most efficient and least costly path."",""Q1"":""Saving money in a savings account with interest."",""Q2"":""In a sort of reverse manner I can find an account with higher interest yield that will allow me to save more money sooner, or reach my savings goal quicker.""}",,,,,,,,,,,,,,,,,
w7ed72a3,9912,survey-text,,,828569,,"{""Q0"":""no"",""Q1"":""not at this time.""}",,,,,,,,,,,,,,,,,
w2a0ab42,87859,survey-text,,,421811,,"{""Q0"":""I didn't mind spending a small amount on clicks if I was able to ensure the final outcome would be great. I did click the initial stop and the final stops before finding out with middle stops would be worth clicking towards the end of the game."",""Q1"":""I would examine the costs and interest of all the loan before making my decision.""}",,,,,,,,,,,,,,,,,
w2a0ab42,51510,survey-text,,,474359,,"{""Q0"":""I would suggest planning out as much as possible in order to make a decision that benefits you the most."",""Q1"":""I am unsure at this time how I can apply the flight game to my own life."",""Q2"":""Again, I am unsure.""}",,,,,,,,,,,,,,,,,
w2a0ab42,22090,survey-text,,,501851,,"{""Q0"":""No, the game was simple to understand."",""Q1"":""I do not have any additional comments or suggestions at this time. Thank you.""}",,,,,,,,,,,,,,,,,
w100388f,105367,survey-text,,,537642,,"{""Q0"":""just focus on the ends"",""Q1"":""I would focus on picking one that i could pay off in the shortest time but would also be cost efficient with my budget""}",,,,,,,,,,,,,,,,,
w100388f,97191,survey-text,,,635875,,"{""Q0"":""sometimes in life you have to lose a little to gain alot"",""Q1"":""buying a new car verus buying a preowned one "",""Q2"":""the new car would cost more but it might be more cost effective due to lower need of replacement parts""}",,,,,,,,,,,,,,,,,
w100388f,7758,survey-text,,,661038,,"{""Q0"":""no"",""Q1"":""no""}",,,,,,,,,,,,,,,,,
w91c085c,26667,survey-text,,,247890,,"{""Q0"":""Find a $48 destination and then just go there"",""Q1"":""The one that has the better interest rate over the long term""}",,,,,,,,,,,,,,,,,
w91c085c,42143,survey-text,,,291041,,"{""Q0"":""Think about short, intermediate, and long term goals. Apply appropriate weightings"",""Q1"":""Education and career goals."",""Q2"":""You have to look at not only the short but the long term, and focus on the destination""}",,,,,,,,,,,,,,,,,
w91c085c,2883,survey-text,,,305105,,"{""Q0"":""No"",""Q1"":""No""}",,,,,,,,,,,,,,,,,
webc188d,99237,survey-text,,,434303,,"{""Q0"":""Start with the destination to see if it's worth taking that path at all"",""Q1"":""Look to see which one has the cheapest total""}",,,,,,,,,,,,,,,,,
webc188d,183713,survey-text,,,619045,,"{""Q0"":""Look to make sure the end goal has a payoff worth the effort of getting there"",""Q1"":""Deciding on a career"",""Q2"":""Making sure the end goal makes sense and that there are not better opportunities out there""}",,,,,,,,,,,,,,,,,
webc188d,6900,survey-text,,,644668,,"{""Q0"":""No"",""Q1"":""NA""}",,,,,,,,,,,,,,,,,
wd68ac06,50400,survey-text,,,427682,,"{""Q0"":""Just click the ending to find the one that pays the most"",""Q1"":""I'd choose the one that had the best rate over 19 years""}",,,,,,,,,,,,,,,,,
wd68ac06,65633,survey-text,,,494366,,"{""Q0"":""The path is as important as the destination"",""Q1"":""Deciding to go to work or to college"",""Q2"":""One path costs more upfront but has more benefits later""}",,,,,,,,,,,,,,,,,
wd68ac06,11652,survey-text,,,514386,,"{""Q0"":""no"",""Q1"":""thanks""}",,,,,,,,,,,,,,,,,
w262270e,322847,survey-text,,,937833,,"{""Q0"":""Check the ultimate destinations first for the most profit"",""Q1"":""I'd click around for the longest benefit (the end destination), and then if those were the same, find the next closest pathway for most beneficial costs.""}",,,,,,,,,,,,,,,,,
w262270e,180424,survey-text,,,1119275,,"{""Q0"":""The game teaches us the types of choices we can make with short-, middle-, and long-term benefits."",""Q1"":""Decisions about finances, mortgage, savings, 401(k), stock market, and investing in general."",""Q2"":""All speculative investing involves risk and decisions that might effect long-term returns. ""}",,,,,,,,,,,,,,,,,
w262270e,61686,survey-text,,,1194190,,"{""Q0"":""At first, yes, but the intelligent assistances throughout helped hone my strategy.  This was the most helpful."",""Q1"":""Thanks for the opportunity - no typos noted.""}",,,,,,,,,,,,,,,,,
w92f2ebc,79373,survey-text,,,296454,,"{""Q0"":""Start by considering airport values, and avoid unnecessary clicks - if there is one +48 then no need to check the other airport on the same path since the stepping stones will be identical. "",""Q1"":""I would primarily focus on the rate for the 19 year segment, then consider the remainder of the first year / first year with a much lower emphasis. ""}",,,,,,,,,,,,,,,,,
w92f2ebc,65390,survey-text,,,362892,,"{""Q0"":""Focus on the big picture decisions, and recognize that some small sacrifices might need to be made in the short-term in order to reach a better long-term position. "",""Q1"":""Budgeting and saving - better to save more now, than to be stressed and indebted later. "",""Q2"":""Assigning values to each step, and calculating the overall benefit vs. upfront costs. ""}",,,,,,,,,,,,,,,,,
w92f2ebc,3373,survey-text,,,374340,,"{""Q0"":""Nope!"",""Q1"":""""}",,,,,,,,,,,,,,,,,
w34122c9,192542,survey-text,,,516577,,"{""Q0"":""Decide how much you would be happy with $24 or $48 and then make a beeline for it once your reveal it."",""Q1"":""I would want to know the interest for the 19 year time period as that is the most important period. I would want the lowest interest rate for the next 19 years and would be less fussy about the first month and the first year rates.""}",,,,,,,,,,,,,,,,,
w34122c9,140751,survey-text,,,658373,,"{""Q0"":""Know what you want before starting out and then head for it once you find it."",""Q1"":""The type of industry or profession you want to work in. You know the job you want, now plot a course to get to it."",""Q2"":""It is about forward planning and following the shortest route to your goal/destination.""}",,,,,,,,,,,,,,,,,
w34122c9,5206,survey-text,,,674642,,"{""Q0"":""no"",""Q1"":""none""}",,,,,,,,,,,,,,,,,
w66a7dde,151973,survey-text,,,1537432,,"{""Q0"":""Only click on the last circles."",""Q1"":""I would choose the 19 years ones. It's better to plan ahead.""}",,,,,,,,,,,,,,,,,
w66a7dde,118079,survey-text,,,1656525,,"{""Q0"":""Even if it costs, learn to plan ahead."",""Q1"":""Family planning and the costs associated"",""Q2"":""The \""cost\"" is my time right now, but it will pay in the long term.""}",,,,,,,,,,,,,,,,,
w66a7dde,31972,survey-text,,,1724779,,"{""Q0"":""No"",""Q1"":""More stages""}",,,,,,,,,,,,,,,,,
w1c95d79,91485,survey-text,,,388878,,"{""Q0"":""Look at all the possible destinations and their starting points, and see which one is the most useful for you"",""Q1"":""I'd see how severe the interest rates are in the beginning month and the final years.""}",,,,,,,,,,,,,,,,,
w1c95d79,62426,survey-text,,,452315,,"{""Q0"":""Make sure that you know the start and end to all of your possible paths"",""Q1"":""Choosing a career"",""Q2"":""You have to choose a long-term viable option for a career, and one that you can reliably get into.""}",,,,,,,,,,,,,,,,,
w1c95d79,2926,survey-text,,,469220,,"{""Q0"":"""",""Q1"":""""}",,,,,,,,,,,,,,,,,
w49a4ecc,86904,survey-text,,,435926,,"{""Q0"":""I should look at midterm consequences first and rule out negative long term consequences."",""Q1"":""I'd want to look at the interest rates for the next 19 years.""}",,,,,,,,,,,,,,,,,
w49a4ecc,99176,survey-text,,,536112,,"{""Q0"":""Unless there are no longterm good outcomes, you should ignore the short term outcomes and focus on the mid to long range outcomes."",""Q1"":""This would be a good decision making strategy for college majors/degrees."",""Q2"":""College is similar to the flight planning game because it does have some short term costs but long term benefits.""}",,,,,,,,,,,,,,,,,
w49a4ecc,3453,survey-text,,,554251,,"{""Q0"":""no"",""Q1"":""no""}",,,,,,,,,,,,,,,,,
w995b876,183903,survey-text,,,601251,,"{""Q0"":""Clicking only the final grey dots at the end of each path. "",""Q1"":""I would likely choose whichever loan had a low interest rate so that I can pay it off slowly and steadily. ""}",,,,,,,,,,,,,,,,,
w995b876,224274,survey-text,,,826571,,"{""Q0"":""I would describe it as a game which encourages you to think long-term. However, to get to an ideal long-term state, you need to think about all of the choices you make on the way as those decisions can impact the outcome. "",""Q1"":""It would probably work quite well for working out a budget for each month so that I can save a specified amount of money for when my boyfriend and I have the opportunity to move to a new apartment. "",""Q2"":""I'd say it's pretty similar. Both situations require you to look at the negative and positives to manifest the desired outcome. ""}",,,,,,,,,,,,,,,,,
w995b876,12558,survey-text,,,849213,,"{""Q0"":""Nope."",""Q1"":""Nothing that I can think of.""}",,,,,,,,,,,,,,,,,
w9fe461d,110588,survey-text,,,821399,,"{""Q0"":""Predicting the path"",""Q1"":""One that has a more variable rates in the beginning""}",,,,,,,,,,,,,,,,,
w9fe461d,104631,survey-text,,,927080,,"{""Q0"":""to choose a path without overthinking it."",""Q1"":""Teaching my small children decision making."",""Q2"":""Showing how to not spend too much time on planning many options. to check a few varables and go with it.""}",,,,,,,,,,,,,,,,,
w9fe461d,41530,survey-text,,,976412,,"{""Q0"":""It was a tad bit confusing. Im still not sure I understand it completely."",""Q1"":""""}",,,,,,,,,,,,,,,,,
w12a699a,122148,survey-text,,,540668,,"{""Q0"":""You can spend a $1 or two on seeing what the options are for getting the most money. Spending money to make money."",""Q1"":""I'd choose the one that has different rates the first month because the more long term the less certainty. ""}",,,,,,,,,,,,,,,,,
w12a699a,135240,survey-text,,,676933,,"{""Q0"":""You need to spend money to make money."",""Q1"":""I should not be afraid to spend money on certain things because in turn I will make more money."",""Q2"":""You spend a bit of money to reveal the money available and then are able to make better decisions based on this knowledge. ""}",,,,,,,,,,,,,,,,,
w12a699a,8268,survey-text,,,699319,,"{""Q0"":""Nope"",""Q1"":""No""}",,,,,,,,,,,,,,,,,
w508093e,95598,survey-text,,,621029,,"{""Q0"":""it's about strategy"",""Q1"":""i would start with the lowest first month, then i would see if that one also have the lowest first year and 19 years, if not i would go to second lowest""}",,,,,,,,,,,,,,,,,
w508093e,55929,survey-text,,,677994,,"{""Q0"":""use risk assessment"",""Q1"":""making my budget weekly"",""Q2"":""it's basically the same, losing and saving money""}",,,,,,,,,,,,,,,,,
w508093e,9182,survey-text,,,695538,,"{""Q0"":""no"",""Q1"":""no""}",,,,,,,,,,,,,,,,,
w47d0970,106079,survey-text,,,540041,,"{""Q0"":""I need to look for the 48 value and once I find it stop clicking and commit to the flight plan that will get me here. I do not want to spend more on clicks to find out those values, because in the long run the 48 value will be the biggest value to me even if I lose some in the long run."",""Q1"":""I would choose what would be most beneficial in the long run to save the most money. Although it may be difficult at first to overcome the bigger payments or putting more money down, I will have more disposable income in the long run""}",,,,,,,,,,,,,,,,,
w47d0970,344375,survey-text,,,885438,,"{""Q0"":""I learned to plan for the long run because in the end you get the most value and benefit the most from making long term decisions rather than short term."",""Q1"":""When paying off my credit card debt, although I want to pay off the smaller card first, I will end up paying less if I pay off the card with the highest interest rate first and save money in the long run this way."",""Q2"":""I will save the most money by planning for the long term rather than focusing on the benefits and immediate impact of the short term.""}",,,,,,,,,,,,,,,,,
w47d0970,4429,survey-text,,,898562,,"{""Q0"":""No"",""Q1"":""No""}",,,,,,,,,,,,,,,,,
w3f48398,39102,survey-text,,,339373,,"{""Q0"":""Click only the outsides to try to find a big number"",""Q1"":""look at the end result""}",,,,,,,,,,,,,,,,,
w3f48398,38009,survey-text,,,378386,,"{""Q0"":""Sometimes you lose a bit in the start of the journey but get a bigger retard at the end"",""Q1"":""Spending lots of money on education for a better career "",""Q2"":""You lose money initially but make more later""}",,,,,,,,,,,,,,,,,
w3f48398,4231,survey-text,,,388697,,"{""Q0"":""No"",""Q1"":""no""}",,,,,,,,,,,,,,,,,
w322a67f,43062,survey-text,,,292605,,"{""Q0"":""Find the endpoint with the highest reward"",""Q1"":""The one with the lowest interest rate would be best""}",,,,,,,,,,,,,,,,,
w322a67f,59251,survey-text,,,352861,,"{""Q0"":""Find the path with the best reward regardless of the costs along the way unless they outweigh the best reward"",""Q1"":""Choosing what job to pursue"",""Q2"":""If you choose a job with a low maximum salary, you won't make as much money.""}",,,,,,,,,,,,,,,,,
w322a67f,1647,survey-text,,,361433,,"{""Q0"":"""",""Q1"":""""}",,,,,,,,,,,,,,,,,
w562f406,4090640,survey-text,,,6147271,,"{""Q0"":""click only 2 of 3 options"",""Q1"":""what was the best rate for what im getting ""}",,,,,,,,,,,,,,,,,
w562f406,74218,survey-text,,,6222512,,"{""Q0"":""different roads may lead you to lose a little before gaining a lot"",""Q1"":""whether to take a certain course or not"",""Q2"":""Different options lead to different outcomes ""}",,,,,,,,,,,,,,,,,
w562f406,2691,survey-text,,,6238357,,"{""Q0"":"""",""Q1"":""""}",,,,,,,,,,,,,,,,,
w45d9d3d,19625,survey-text,,,296978,,"{""Q0"":""Look at the end goal versus the steps to get there"",""Q1"":""The next 19 years""}",,,,,,,,,,,,,,,,,
w45d9d3d,51842,survey-text,,,349825,,"{""Q0"":""Look at the end goal and don't spend so much on the little steps to get there"",""Q1"":""Life planning for retirement/traveling"",""Q2"":""Don't focus on the little things, because in the end the profit will be more""}",,,,,,,,,,,,,,,,,
w45d9d3d,3843,survey-text,,,360340,,"{""Q0"":""no"",""Q1"":""""}",,,,,,,,,,,,,,,,,
w6be0811,160816,survey-text,,,769418,,"{""Q0"":""Check the destination with the highest value and take the risk through."",""Q1"":""I would go for the option that as the best interest rate and the loan that would be best at the end.""}",,,,,,,,,,,,,,,,,
w6be0811,148782,survey-text,,,919270,,"{""Q0"":""Take the chances and risk to get the best at the end of the day"",""Q1"":""Starting and running my own personal business."",""Q2"":""Taking chances for what is best""}",,,,,,,,,,,,,,,,,
w6be0811,7303,survey-text,,,939479,,"{""Q0"":""None"",""Q1"":""""}",,,,,,,,,,,,,,,,,
wb91524e,54822,survey-text,,,393217,,"{""Q0"":""I saw no real incentive to NOT spend the full amount on clicks - I made a profit every time. "",""Q1"":""I want a loan that has the lowest interest rate for the longest period.""}",,,,,,,,,,,,,,,,,
wb91524e,83978,survey-text,,,478200,,"{""Q0"":""Sometimes you have to take a short term loss to get to a higher long term profit. "",""Q1"":""Investing in myself to make more money later - going to college and spending up front, for example."",""Q2"":""When I went to college I had to take out student loans to pay for it, but now I can make more money because of the degree I earned - in the long term I've made more money by spending some early.""}",,,,,,,,,,,,,,,,,
wb91524e,10856,survey-text,,,497041,,"{""Q0"":""Not in particular."",""Q1"":""n/a""}",,,,,,,,,,,,,,,,,
w66b2542,185964,survey-text,,,589641,,"{""Q0"":""It is best to check the spots that are the furthest out, because those are the ones that have the biggest gain or loss. If you find a high value spot, it is generally best to stop clicking the spots and go for it."",""Q1"":""I would look at the interest rate for the next 19 years first. That interest rate will end up either saving me or losing me the most amount of money in the long run, just like checking the furthest out spots in flight planning.""}",,,,,,,,,,,,,,,,,
w66b2542,310256,survey-text,,,900920,,"{""Q0"":""It is best to consider the long term effects of your choices before anything else. As long as the long term benefit is worth it, any small pullbacks in the short term are okay."",""Q1"":""I think deciding to exercise versus not exercising is a good example. In the short term in can be hard to find the time and motivation to do it, but the long term benefits are very helpful and definitely more than make up for any small inconveniences now."",""Q2"":""In the short term, not exercising has benefits, so like the flight planning games the spots would be green. But in the long run, it is harmful for your health, so the final spot would be a large red number. Exercising meanwhile, might be red for the first spot or two, but the final spot would be a large green number.""}",,,,,,,,,,,,,,,,,
w66b2542,5516,survey-text,,,915344,,"{""Q0"":""No."",""Q1"":""No.""}",,,,,,,,,,,,,,,,,
w81e01f7,142005,survey-text,,,555428,,"{""Q0"":""I am really not sure what I can do to increase my chances of finding a good flight plan?  My brain didn't work very well with this game.  I thought I may be able to figure it out, but obviously I did poorly at it."",""Q1"":""I would  chose the one that had the lowest interest rate over the 19 years.""}",,,,,,,,,,,,,,,,,
w81e01f7,157022,survey-text,,,713461,,"{""Q0"":""I would suggest that you stop to think about the long term consequences of the choices you make and how it will impact you in the future.  "",""Q1"":""Investing for your future starting at a young age and saving slowly over time versus worrying about your finances when you are ready to retire."",""Q2"":""The flight planning game gave you the option to spend a $1 to choose the right path to earn the most money.   In life, you have the option to make smart decisions by following a path that leads to success.""}",,,,,,,,,,,,,,,,,
w81e01f7,54022,survey-text,,,786901,,"{""Q0"":""No."",""Q1"":""Thank you for the opportunity!""}",,,,,,,,,,,,,,,,,
wed564b7,130917,survey-text,,,512978,,"{""Q0"":""Click the outers until you find a 48, click again to see if there are more 48s, and just gather as much info as possible. It's better than landing on a -8 "",""Q1"":""Figure out which one will get me the most money in the long run, and if two are equal find out which one gets me more money in the short run ""}",,,,,,,,,,,,,,,,,
wed564b7,174152,survey-text,,,688163,,"{""Q0"":""When you're comparing two things, don't just look at the end results. "",""Q1"":""I'm comparing classes to take next semester in school and debating between the ones I really want to take and the ones that would look the best on my transcript"",""Q2"":""I need to look ahead at the benefits of taking these classes and then compare the benefits un the short term while taking the classes.""}",,,,,,,,,,,,,,,,,
wed564b7,2830,survey-text,,,698745,,"{""Q0"":"""",""Q1"":""""}",,,,,,,,,,,,,,,,,
w9276193,84966,survey-text,,,491767,,"{""Q0"":""I don't think there's much more I could've done that would'nt incur more risk. I removed finding out what was in between the start and finish destination, but removing another one would limit my information and cause risk."",""Q1"":""I'd see the short term loss vs the long term less. Find out how much it'd cost me then decide.""}",,,,,,,,,,,,,,,,,
w9276193,80502,survey-text,,,573282,,"{""Q0"":""Make sure you take into consideration both the short term and the long term gains/losses before making a decision."",""Q1"":""For a student like me, choosing the cost of a college versus the pay rate of the job field im jumping into."",""Q2"":""The short term cost of the education has to be worth the pay later.""}",,,,,,,,,,,,,,,,,
w9276193,2521,survey-text,,,588076,,"{""Q0"":"""",""Q1"":""""}",,,,,,,,,,,,,,,,,
