wid,view_history,time_elapsed,trial_type,rt,questions,responses,correct,stimulus,button_pressed,path,queries,state_rewards,trial_index,score,prs,trial_time,actions,action_times,trial_id,simulation_mode,rewards,block,delays,key_press
w5a3ba7d,,862486,survey-text,32081,,"{""Q0"":""click only on the destination""}",,,,,,,,,,,,,,,,,,
w5a3ba7d,,1035448,survey-text,171948,,"{""Q0"":""in order not to waste much points, only select the long term destination"",""Q1"":""establishing a new business"",""Q2"":""seek a lot of information and focus more on the long term foals""}",,,,,,,,,,,,,,,,,,
w5a3ba7d,,1121878,survey-text,85359,,"{""Q0"":""information is vital to success. always consult when you are ignorant of anythin""}",,,,,,,,,,,,,,,,,,
w6c5f69b,,491670,survey-text,24741,,"{""Q0"":""Working backwards from the number of viable outcomes""}",,,,,,,,,,,,,,,,,,
w6c5f69b,,621011,survey-text,128317,,"{""Q0"":""Planning a journey with the end clearly in mind will lead to efficient decision-making."",""Q1"":""How I choose to spend my money in the short-term, based on my long-term goals."",""Q2"":""In order to make proper decisions, you must understand your goals and what it will take to achieve them.""}",,,,,,,,,,,,,,,,,,
w6c5f69b,,759279,survey-text,137249,,"{""Q0"":""Look at the costs of the final hotel in each city, and work backwards to plan a cost-efficient route.""}",,,,,,,,,,,,,,,,,,
w8d6be9e,,615537,survey-text,138673,,"{""Q0"":""Start by finding the flight with the best long term rewards; sometimes that is enough. If you find more than one long term reward of the same value, then you can investigate the relative benefits/costs of the short term and mid term decisions.""}",,,,,,,,,,,,,,,,,,
w8d6be9e,,1176572,survey-text,560024,,"{""Q0"":""Determine your possible long term goals first and then determine how the path you must take to get there makes those goals more or less desirable."",""Q1"":""Preparing for a future profession through training or education with costs/benefits in terms of financial cost, time expenditure, and relevance to getting a job in that profession. I have to decide whether the rewards of preparing for a particular job are outweighed by the costs of getting a new degree, for instance."",""Q2"":""In the Flight Planning game, the ultimate destination is important in determining the value of making certain choices, but the benefits and costs acquired in the first two \""stops\"" can make a desirable final destination more or less appealing than it would otherwise be.""}",,,,,,,,,,,,,,,,,,
w8d6be9e,,1539378,survey-text,361799,,"{""Q0"":""Find out the costs of stops that can be used on the way to more than one airport. If the cost of a ticket in each airport is different, I would find that out first, though.""}",,,,,,,,,,,,,,,,,,
w2717313,,502889,survey-text,27601,,"{""Q0"":""Check the long term consequences.""}",,,,,,,,,,,,,,,,,,
w2717313,,708706,survey-text,204810,,"{""Q0"":""Think long term. The short and mid-term steps will be minor compared to the long term reward."",""Q1"":""Career planning.  You can go in debt for a good education, and work less paying internships, but in the end you can have a rewarding life career."",""Q2"":""Focus on the end goal.""}",,,,,,,,,,,,,,,,,,
w2717313,,852436,survey-text,142715,,"{""Q0"":""Try to minimize the number of stops, and check the prices of the final hotel at the airport cities.""}",,,,,,,,,,,,,,,,,,
wa986f14,,671372,survey-text,42826,,"{""Q0"":""Try and head towards dots that you found gave negative $/values on the last step""}",,,,,,,,,,,,,,,,,,
wa986f14,,834834,survey-text,162444,,"{""Q0"":""You never know what you'll get with each step"",""Q1"":""Literally could apply this to any situation"",""Q2"":""You had to take chances on decisions, or you could put in a little to get a little back""}",,,,,,,,,,,,,,,,,,
wa986f14,,915397,survey-text,79557,,"{""Q0"":""Remember the patterns from previous choices""}",,,,,,,,,,,,,,,,,,
wa1b608e,,559198,survey-text,33780,,"{""Q0"":""Click on each tile to spend a dollar, to see which is most profitable.""}",,,,,,,,,,,,,,,,,,
wa1b608e,,627465,survey-text,67264,,"{""Q0"":""Check other flight paths, might be cheaper"",""Q1"":""As I stated before, making sure you are checking alternative routes to see if another path would be cheaper."",""Q2"":""Planning in general""}",,,,,,,,,,,,,,,,,,
wa1b608e,,655677,survey-text,27209,,"{""Q0"":""Looks similiar as the flight planning game, but using cars/travel""}",,,,,,,,,,,,,,,,,,
w5eb2e2f,,1054504,survey-text,165989,,"{""Q0"":""i will do research and see how i can get the cheaper flight plan without spending on clicks""}",,,,,,,,,,,,,,,,,,
w5eb2e2f,,1460389,survey-text,404876,,"{""Q0"":""referencing the art of flight planning whatever you have to do in life, you'd have to think about the consequences of whatever action you take in life"",""Q1"":""my sister wanting to open a business 3 years ago"",""Q2"":""when she was about setting out in the business i advised her not to invest her whole capital starting out cos it was something she knew little to nothing about,instead she should diversify.and she listened to me as the business she intended on starting on before wasn't doing too well, but the others things she ventured into are doing wonderfully ok""}",,,,,,,,,,,,,,,,,,
w5eb2e2f,,1784905,survey-text,323487,,"{""Q0"":""he could make research on the list expensive hotels beforeb embarking on the journey""}",,,,,,,,,,,,,,,,,,
w590ed6a,,435323,survey-text,76601,,"{""Q0"":""You can increase your chances by finding out the end cost of the final destination""}",,,,,,,,,,,,,,,,,,
w590ed6a,,748608,survey-text,312261,,"{""Q0"":""You are the pilot of your life. Your life is a flight path with short, mid and long term consequences, you might not have the time to deliberate on all choices, choose which would be most affective "",""Q1"":""My life goals"",""Q2"":""This situation equally has short midterm and,long consequences. The goals are achieved through a series of steps. I am sometimes faced with the dilemma of choosing just one goal""}",,,,,,,,,,,,,,,,,,
w590ed6a,,1026099,survey-text,276319,,"{""Q0"":""Using what i have learnt, i would save time by finding the cost for the final cities first, then streamlining my decision and look for the cheaper route to that airport""}",,,,,,,,,,,,,,,,,,
w36283ee,,418869,survey-text,15889,,"{""Q0"":""it seems random to me""}",,,,,,,,,,,,,,,,,,
w36283ee,,473841,survey-text,53953,,"{""Q0"":""you never know where youll end up"",""Q1"":""unsure"",""Q2"":""unsure""}",,,,,,,,,,,,,,,,,,
w36283ee,,545831,survey-text,70971,,"{""Q0"":""i didnt learn anything to do well here""}",,,,,,,,,,,,,,,,,,
w178a25d,,717399,survey-text,232639,,"{""Q0"":""To increase chances of finding a good flight, it is more beneficial to first look at the profit of the final destinations and only look at the steps in between depending on the profit margins.""}",,,,,,,,,,,,,,,,,,
w178a25d,,984037,survey-text,265583,,"{""Q0"":""Have long term goals but also plan out the steps leading up to them to see if the end goal is feasible"",""Q1"":""Making plans for the week"",""Q2"":""One would want to chart out the work that needs to be done but also take into account if completion of tasks would cause emotional duress or loss of sleep.""}",,,,,,,,,,,,,,,,,,
w178a25d,,1321134,survey-text,336055,,"{""Q0"":""Since time is important as well, it would be easier to look for a route with as little stops as possible so there are less hotel expenses to pay for as well.""}",,,,,,,,,,,,,,,,,,
wbbeb9f9,,379925,survey-text,41782,,"{""Q0"":""click on only the outermost locations to find which is most profitable""}",,,,,,,,,,,,,,,,,,
wbbeb9f9,,481293,survey-text,100350,,"{""Q0"":""It is helpful to think about your long-term goal while making short-term plans."",""Q1"":""I'm currently trying to improve my piano playing, so I've been thinking about where exactly I'd like to be to make decisions about the best way to practice to get there."",""Q2"":""It will take less time and effort if I have a goal in mind than if I just randomly work on various skills or repertoire. ""}",,,,,,,,,,,,,,,,,,
wbbeb9f9,,546516,survey-text,64172,,"{""Q0"":""Check prices in each of the destination hotels, or give preference to the shortest route""}",,,,,,,,,,,,,,,,,,
w442358a,,370832,survey-text,58032,,"{""Q0"":""Clicking on final destinations to find the greatest number, and then finding which one costs less to get to. Basically, reducing your amount of clicks by figuring out the best final destination first.""}",,,,,,,,,,,,,,,,,,
w442358a,,726268,survey-text,354415,,"{""Q0"":""The art of Flight of Planning can be compared to setting yourself up for success, and making sure the road to success isn't usurping the success when you get there. "",""Q1"":""A good decision from my own life would probably sum up to my college and life spending. In order to properly fulfill my career, and the road to my career, I must choose and spend appropriately to bring myself there. (Without putting myself in a financial situation)"",""Q2"":""This situation is very similar to the Flight Planning game because of the concept. The idea of making choices and spending your money wisely in order to go certain places (in this case, a career) is a perfectly good example to show that strategy matters.""}",,,,,,,,,,,,,,,,,,
w442358a,,922119,survey-text,194841,,"{""Q0"":"" Considering what I've learned from Flight Planning, cutting down your cost and finding the least expensive hotel route without being too time consuming is by finding the smaller route and the overall cost estimated by the last airport destination. ""}",,,,,,,,,,,,,,,,,,
w471fb31,,951769,survey-text,139279,,"{""Q0"":""Life is like a flight. Make sure to increase your chances of finding a good flight plan.""}",,,,,,,,,,,,,,,,,,
w471fb31,,1597392,survey-text,644617,,"{""Q0"":""I would tell my friend to make sure he is careful enough to take a step in life."",""Q1"":""Choosing a category of my career is an example of a decision from my own life where this strategy might work specially well."",""Q2"":""I think choosing a category of my career is like the same as the Flight Planning game. because that time I also faced similar kind of difficulties.""}",,,,,,,,,,,,,,,,,,
w471fb31,,1788912,survey-text,190513,,"{""Q0"":""I will take every step carefully because I learned from my previous experiences.""}",,,,,,,,,,,,,,,,,,
wb0ae1ef,,1250783,survey-text,142615,,"{""Q0"":""I think i need proper planning and strategies.""}",,,,,,,,,,,,,,,,,,
wb0ae1ef,,1883846,survey-text,632013,,"{""Q0"":""The lesson i learnt is that one should not gamble with one's life. Life needs proper planning so that one can make the best out of life."",""Q1"":""When i and my partner decided to venture in a business."",""Q2"":""When i and my partner decided to venture in a business, we took our time to plan and to know more about the business so we would not suffer lose and also make huge profits at the end of the day.""}",,,,,,,,,,,,,,,,,,
wb0ae1ef,,2440841,survey-text,555904,,"{""Q0"":""In this scenario as a travel agent, i will subcontract the responsibility of finding the cheapest hotel in each city to someone else in the particular city i want. This will make the process very fast as i will tend to make more money because, i will have more clients who i can tell i have the best deals of the cheapest hotel in any city of choice.""}",,,,,,,,,,,,,,,,,,
we1e3e44,,476384,survey-text,24729,,"{""Q0"":""focus on the long term as the main goal ""}",,,,,,,,,,,,,,,,,,
we1e3e44,,564300,survey-text,86895,,"{""Q0"":""focus on the long term goals i have and the paths i take there don't matter as much "",""Q1"":""graduate school "",""Q2"":""there are many different paths i can take there""}",,,,,,,,,,,,,,,,,,
we1e3e44,,687425,survey-text,122106,,"{""Q0"":""there might be a more expensive final destination to watch out for""}",,,,,,,,,,,,,,,,,,
w8ca7af5,,315584,survey-text,56164,,"{""Q0"":""Finding out the final destinations' costs only, ignoring the short term and mid term, because if the long term goal is worth it, it should be a net gain.""}",,,,,,,,,,,,,,,,,,
w8ca7af5,,465260,survey-text,148673,,"{""Q0"":""The long-term goal should be prioritized over the short-term or mid-term gains."",""Q1"":""Planning for an exam or a large project."",""Q2"":""No matter how tough the journey is, if it means an outcome is good and achievable, it is worth it.""}",,,,,,,,,,,,,,,,,,
w8ca7af5,,609807,survey-text,143534,,"{""Q0"":""If the final city is like the previous game, and we stay there the longest, I would ask the agent to prioritize the final destination's costs, and use any time left to check the mid points.""}",,,,,,,,,,,,,,,,,,
wea79123,,383398,survey-text,31484,,"{""Q0"":""Check the end results (corner airports)""}",,,,,,,,,,,,,,,,,,
wea79123,,500321,survey-text,115900,,"{""Q0"":""Start with the end in mind, and work towards that goal, even if you lose a little along the way, the final product is worth it."",""Q1"":""Buying a house - fixing bad credit and denying myself some things for a time in order to save money and get a larger return of being debt-free and owning a home."",""Q2"":""You may have to \""fly\"" through losses, but the gain is greater on the other side.""}",,,,,,,,,,,,,,,,,,
wea79123,,534732,survey-text,33395,,"{""Q0"":""Check the final airport hotel price""}",,,,,,,,,,,,,,,,,,
we35a42f,,348875,survey-text,47351,,"{""Q0"":""It is a better idea to click on the airports at the end of each path because those tend to have the highest profit/loss, which will offset the losses that may be incurred by clicking or following the losses of that path to get to the profit.""}",,,,,,,,,,,,,,,,,,
we35a42f,,446395,survey-text,96515,,"{""Q0"":""Look at the big picture/end goals. Those matter more than the short term or even middle term profits/losses."",""Q1"":""Choosing to go to college"",""Q2"":""This decision is one that will cost me a lot of money in the short term, but I am confident that the degree will make up for it by making me more money in the long term.""}",,,,,,,,,,,,,,,,,,
we35a42f,,515799,survey-text,68391,,"{""Q0"":""I would start by finding out the price of staying in one of the airport cities and work backwards from the one with the lowest price.""}",,,,,,,,,,,,,,,,,,
we9b9c2d,,562922,survey-text,30768,,"{""Q0"":""Only click to determine the value of destinations (long-term options).""}",,,,,,,,,,,,,,,,,,
we9b9c2d,,628517,survey-text,64568,,"{""Q0"":""That even though steps toward goals may set you back, the ultimate reward is greater."",""Q1"":""Going to college may impede on current earnings and set me back financially, but (hopefully) a job requiring a degree will cover those costs."",""Q2"":""I am initially set back financially.""}",,,,,,,,,,,,,,,,,,
we9b9c2d,,655798,survey-text,26258,,"{""Q0"":""Just choose whichever flight is cheapest.""}",,,,,,,,,,,,,,,,,,
w38a35e6,,414620,survey-text,44449,,"{""Q0"":""Once a destination of 48 is found, take that path. ""}",,,,,,,,,,,,,,,,,,
w38a35e6,,655990,survey-text,240348,,"{""Q0"":""Consider the possible paths to a goal or life event and analyze the cost vs reward to get there. "",""Q1"":""Deciding on what jobs to apply to taking into account various factors \n such as effort needed to apply, chance of getting the job, salary, etc. "",""Q2"":""There can be various options available, but some paths can have a higher reward than others. ""}",,,,,,,,,,,,,,,,,,
w38a35e6,,889313,survey-text,232299,,"{""Q0"":""Determine the least expensive expensive hotel for one of the destination cities. Then plan a route that travels the least amount of cities to the destination city. ""}",,,,,,,,,,,,,,,,,,
w6f81791,,244475,survey-text,18291,,"{""Q0"":""only click on the final destinations because they lose or win the most.""}",,,,,,,,,,,,,,,,,,
w6f81791,,483229,survey-text,237730,,"{""Q0"":""Always think ahead because the final goals are the ones that have the most impact."",""Q1"":""choosing a career and going to college based on that."",""Q2"":""going to college is the first step (good college or bad college might gain you a couple points here or there). Second step is clubs/internships and performance in (good or bad). Final, is landing a job or getting nothing at all. ""}",,,,,,,,,,,,,,,,,,
w6f81791,,512686,survey-text,28445,,"{""Q0"":""look at intermediate to long airpots.""}",,,,,,,,,,,,,,,,,,
w069afe5,,475348,survey-text,73307,,"{""Q0"":""You could guess by only revealing a few landing prices at the start, but ultimately it's usually best to reveal all prices, as you make more money in the end.""}",,,,,,,,,,,,,,,,,,
w069afe5,,601696,survey-text,125338,,"{""Q0"":""Sometimes you don't know what the future holds, but you have to act or make a decision with the information you have."",""Q1"":""Deciding on a firm path for my master's thesis while abandoning other potential directions."",""Q2"":""I had to make a choice without knowing future obstacles or opportunities beforehand.""}",,,,,,,,,,,,,,,,,,
w069afe5,,671427,survey-text,68711,,"{""Q0"":""Abandoning more expensive routes would still apply in this game.""}",,,,,,,,,,,,,,,,,,
wc2ded2d,,699491,survey-text,29104,,"{""Q0"":""I'm not really sure, as it all seems to be guessing.""}",,,,,,,,,,,,,,,,,,
wc2ded2d,,791024,survey-text,90509,,"{""Q0"":""Life is a journey.  You can think you are doing all of the right things, but in the end, it's all up to chance."",""Q1"":""I went to college to get a good job.  That didn't pan out very well, so it is all a crap shoot."",""Q2"":""Nothing is guaranteed in life.""}",,,,,,,,,,,,,,,,,,
wc2ded2d,,829405,survey-text,37370,,"{""Q0"":""Click on the farthest away ones first.""}",,,,,,,,,,,,,,,,,,
w2c356f7,,409878,survey-text,71760,,"{""Q0"":""Click on the furthermost points which show your long-term projections.""}",,,,,,,,,,,,,,,,,,
w2c356f7,,577376,survey-text,166431,,"{""Q0"":""It's not about each individual step or the short-term decisions you make so much as it is planning for the long-term and looking ahead at all times."",""Q1"":""Enrolling in extra courses of schooling will pay off in the long run as I work towards another degree."",""Q2"":""Sometimes you can get lost in the everyday decisions that you make, but as long as you have something to guide yourself for years down the road, you're at least making some progress towards an attainable goal.""}",,,,,,,,,,,,,,,,,,
w2c356f7,,660153,survey-text,81712,,"{""Q0"":""I would look at the points furthest away from me and work my way back so that I can save as much time and money as possible.""}",,,,,,,,,,,,,,,,,,
we496a70,,318134,survey-text,35363,,"{""Q0"":""Clicking on the possible end results and then working back from the best option available.""}",,,,,,,,,,,,,,,,,,
we496a70,,448722,survey-text,129578,,"{""Q0"":""Planning for life is like figuring out where and what you want to be in life and then working back from that to plot out your journey."",""Q1"":""Considering whether or not I should pursue more education or get directly into the workforce would be an excellent way that this would work."",""Q2"":"" They're identical, in a way: both allow you to figure out how much time, money, and energy it would require to get there and which route would be the best for you.""}",,,,,,,,,,,,,,,,,,
we496a70,,508908,survey-text,59155,,"{""Q0"":""Working from my desired destination backward might help me choose the best path for me to take said place.""}",,,,,,,,,,,,,,,,,,
wad5e33d,,325338,survey-text,18658,,"{""Q0"":""only look at the end goal ""}",,,,,,,,,,,,,,,,,,
wad5e33d,,424814,survey-text,98442,,"{""Q0"":""don't worry about how you get to your destination"",""Q1"":""getting a good grade in a class"",""Q2"":""You want a good grade as your end goal even though getting there may have some sacrifices ""}",,,,,,,,,,,,,,,,,,
wad5e33d,,504714,survey-text,78884,,"{""Q0"":""look at the least expensive hotel in the last cities\n""}",,,,,,,,,,,,,,,,,,
w51c08ad,,531329,survey-text,19345,,"{""Q0"":""Click only on the destinations.""}",,,,,,,,,,,,,,,,,,
w51c08ad,,597519,survey-text,65177,,"{""Q0"":""Think about where you want to go, and make a plan to get there."",""Q1"":""I would like to move, live in a specific kind of home, and enjoy the work I do."",""Q2"":""I can make a plan for moving, finding and purchasing the house I would like, and finding a different job.""}",,,,,,,,,,,,,,,,,,
w51c08ad,,711346,survey-text,112818,,"{""Q0"":""I'm not sure because in the flight plan, the end airport would determine whether it was worth taking certain paths, even with a loss. This looks like you need more information because there would be a stop in each city. I could try to approach it the same way though.""}",,,,,,,,,,,,,,,,,,
w966c907,,426845,survey-text,118137,,"{""Q0"":""Reveal the final destinations of the flight plan first to see what is profitable since they have the highest values.""}",,,,,,,,,,,,,,,,,,
w966c907,,621199,survey-text,193312,,"{""Q0"":""Look at the end goal to realize how good of a decision is."",""Q1"":""Choosing a college."",""Q2"":""Even if a college may seem to be a bad decision based on cost of tuition, you have to consider the valuable information that you may learn by going there that will help later in life.""}",,,,,,,,,,,,,,,,,,
w966c907,,789994,survey-text,167771,,"{""Q0"":""Choose a city from a random route to see if the price is worth it. If it is too expensive then I will choose a city from a different route to see how it compares. If necessary I will pick another city from another route.""}",,,,,,,,,,,,,,,,,,
w3f57ccf,,512561,survey-text,104027,,"{""Q0"":""Only check the end of the path first. If two paths are equal, then clicks can be used to figure out if one path has more negatives than the other""}",,,,,,,,,,,,,,,,,,
w3f57ccf,,887014,survey-text,373447,,"{""Q0"":""When making a decision about a life plan, start with the cost/benefit analysis of the end goal first. After deciding between a couple potential paths of action, then look at the cost/benefit of the short term and mid-term steps."",""Q1"":""Deciding on a career path"",""Q2"":""When deciding on a career path, it is important to look at the end goal first. Then one looks at the trajectory of that path and decides whether the costs/benefits of that path are worth the end goal. ""}",,,,,,,,,,,,,,,,,,
w3f57ccf,,964999,survey-text,76964,,"{""Q0"":""start with the end point first, then look at the points in between""}",,,,,,,,,,,,,,,,,,
w4573a27,,277826,survey-text,16397,,"{""Q0"":""Trying different routes each time.""}",,,,,,,,,,,,,,,,,,
w4573a27,,353855,survey-text,75020,,"{""Q0"":""Take small steps toward your goals."",""Q1"":""Trying to run long distances, such as an 8K race."",""Q2"":""You have to pace yourself and take steps and precautions so you don't get hurt.""}",,,,,,,,,,,,,,,,,,
w4573a27,,392226,survey-text,37364,,"{""Q0"":""Trying to find the least expensive route.""}",,,,,,,,,,,,,,,,,,
w0599323,,662811,survey-text,81298,,"{""Q0"":""I noticed that the furthest destinations, like the top left and top right destinations, usually had the largest amount of profit. I would click only on those to show which way I should go. ""}",,,,,,,,,,,,,,,,,,
w0599323,,877905,survey-text,214073,,"{""Q0"":""If you want to go ahead in life, you'll have to take risks even when knowing the final destination or goal. These risks may be negative or positive."",""Q1"":""An example of my own life would be how I risked going to a university without me knowing the full negatives and positives that would come from it. Even now I'm still in debt towards that university, but in that one year I was in it I learned many things about myself."",""Q2"":""I took a risk that seemed to have a positive goal, but through out the way there were many negative and positive risks.""}",,,,,,,,,,,,,,,,,,
w0599323,,965159,survey-text,86232,,"{""Q0"":""I would only check the hotels in the final city that houses the airports, and pick the least expensive one since that would mean I would be paying less overall.""}",,,,,,,,,,,,,,,,,,
w0e9c16a,,368406,survey-text,41213,,"{""Q0"":""Just try to make good decisions. If one road is in the green continue on that plan.""}",,,,,,,,,,,,,,,,,,
w0e9c16a,,451431,survey-text,81994,,"{""Q0"":""It's better to click more than to take risks."",""Q1"":""When making financial decisions in my life, as long as things are going well in direction keep moving that way. "",""Q2"":""I kept on the paths that looked promising and didn't take many chances.""}",,,,,,,,,,,,,,,,,,
w0e9c16a,,506365,survey-text,53929,,"{""Q0"":""To still try to find the least expensive hotels, to take the time because it is worth it.""}",,,,,,,,,,,,,,,,,,
w6fdcf65,,500941,survey-text,23305,,"{""Q0"":""focus on the long term since it is worth more""}",,,,,,,,,,,,,,,,,,
w6fdcf65,,593853,survey-text,91890,,"{""Q0"":""while long term is not the only thing to consider, it is so much more important"",""Q1"":""choosing my career path"",""Q2"":""I have many options. Some are harder but with greater gains at the end. Any decision is a risk""}",,,,,,,,,,,,,,,,,,
w6fdcf65,,661968,survey-text,67068,,"{""Q0"":""stay in as few hotels as possible, and go to the one at the end that is least expensive""}",,,,,,,,,,,,,,,,,,
wb784b75,,351679,survey-text,22101,,"{""Q0"":""Only check on the long term outcomes/destinations, and check until I find the highest outcome""}",,,,,,,,,,,,,,,,,,
wb784b75,,402983,survey-text,50279,,"{""Q0"":""Think most about long term outcomes"",""Q1"":""Deciding to go to college"",""Q2"":""there might be smaller costs in the short term, but it will pay off in the long term""}",,,,,,,,,,,,,,,,,,
wb784b75,,493456,survey-text,89465,,"{""Q0"":""Stop looking when you've found a hotel that is an acceptable price""}",,,,,,,,,,,,,,,,,,
w8d385a8,,559049,survey-text,69686,,"{""Q0"":""Planning does save you money by helping to avoid bad choices. Choosing prior trips would be helpful too. ""}",,,,,,,,,,,,,,,,,,
w8d385a8,,798311,survey-text,238237,,"{""Q0"":""It is worth it to make plans before doing things that could cause you losses. Get data before making mistakes that cost money. "",""Q1"":""I would read about the warranty of a product that I might need year after year like a car before buying it. "",""Q2"":""I could buy a car that only had a year warranty on certain engine parts. Then after a year they could wear out and I have to replace them. If I read information first and learn a warranty is three years, I could buy that car instead. ""}",,,,,,,,,,,,,,,,,,
w8d385a8,,882548,survey-text,83167,,"{""Q0"":""I would stay at hotels I stayed at before since I already knew their prices. ""}",,,,,,,,,,,,,,,,,,
w6dfd040,,311129,survey-text,28294,,"{""Q0"":""You click on the destinations and accept the risk of losing a couple $.""}",,,,,,,,,,,,,,,,,,
w6dfd040,,383792,survey-text,71656,,"{""Q0"":""You make risks in the short term to make profits in the long term"",""Q1"":""Go out of comfort zone and see what happens. A lot can happen in one minute."",""Q2"":""You see what the outcome is but will expect unexpected.""}",,,,,,,,,,,,,,,,,,
w6dfd040,,423958,survey-text,39147,,"{""Q0"":""Check out the cost of routes.""}",,,,,,,,,,,,,,,,,,
w89b240a,,430386,survey-text,115010,,"{""Q0"":""Find the pattern of prices for the destinations. $48 seemed to be the highest reward available, so as soon as I found a destination with that price I would immediately go for it.""}",,,,,,,,,,,,,,,,,,
w89b240a,,841930,survey-text,410525,,"{""Q0"":""You can make sound decisions with the right amount of planning- you can come to a good conclusion without being wastefully meticulous by drawing on your past experiences."",""Q1"":""There was a DVD I wanted on sale for 10% off. This was in August, and I knew that by Black Friday there would be a better sale, since I know that this particular store offers a 15% off sale at minimum for all their items. I ended up buying it for 20% off which felt like a steal."",""Q2"":""I drew from past experiences and thought that even though 10% off was a good deal (much like $24 in the Flight Planning game), the possibility to get 15-20% off (like $48 in the game) was still a realistic and obtainable outcome.""}",,,,,,,,,,,,,,,,,,
w89b240a,,950786,survey-text,107816,,"{""Q0"":""You don't need to be overly meticulous and search every single spot for a good deal when you can look at patterns of pricing and use that to make a decision.""}",,,,,,,,,,,,,,,,,,
wb6ee90d,,689128,survey-text,108966,,"{""Q0"":""Decide every move carefully.""}",,,,,,,,,,,,,,,,,,
wb6ee90d,,830564,survey-text,140406,,"{""Q0"":""I learned that I have to make every move very carefully to solve the path."",""Q1"":""Make decisions carefully."",""Q2"":""Make every move carefully and think twice before doing.""}",,,,,,,,,,,,,,,,,,
wb6ee90d,,1001214,survey-text,169630,,"{""Q0"":""Find the shortest and easiest path to solve""}",,,,,,,,,,,,,,,,,,
w2f28149,,377519,survey-text,67923,,"{""Q0"":""Refer to the long term consequences (last destination on the route) and use that to flight plan. The short term consequences (first hop) are less impactful if the long term pay out is higher.""}",,,,,,,,,,,,,,,,,,
w2f28149,,532438,survey-text,153848,,"{""Q0"":""Consider your long term goals rather than short term payouts. While it may look like the short term viewpoint provides adequate return, the long term viewpoint is always more lucrative. "",""Q1"":""Retirement planning - while putting money away is not enjoyable in the present, the long term payout will be higher even with mid term loses than spending the money now. "",""Q2"":""It makes you look at differing viewpoints of money usage - savings vs spending ""}",,,,,,,,,,,,,,,,,,
w2f28149,,589870,survey-text,56368,,"{""Q0"":""You would use the same short vs long term thinking as the airline route planning. You want long term thinking to overcome short term gain.""}",,,,,,,,,,,,,,,,,,
w6782592,,363337,survey-text,44130,,"{""Q0"":""Some short term decisions seem good at the time, but they have long term consequences. Just because the final location had the full payment, the road to get there could be costly. Taking more time to find the best route can be beneficial. ""}",,,,,,,,,,,,,,,,,,
w6782592,,442600,survey-text,78261,,"{""Q0"":""Without the future picture, it's difficult to make an informed decision. "",""Q1"":""Getting a college degree is an attractive end goal. But there are many ways to get that and some will be better than others. "",""Q2"":""Getting a full degree is the end goal, but you could hit a -24 dollar point on the way there. That could be the equivalent of picking an overly expensive college. ""}",,,,,,,,,,,,,,,,,,
w6782592,,501217,survey-text,57602,,"{""Q0"":""I would start by finding how expensive each of the airports are. And if there's multiple ways to get there, I would determine the best route for the forks in the road. ""}",,,,,,,,,,,,,,,,,,
w3bae4c4,,221092,survey-text,11775,,"{""Q0"":""Always look in the final destination first""}",,,,,,,,,,,,,,,,,,
w3bae4c4,,269477,survey-text,47377,,"{""Q0"":""Look ahead to see which destination is the best before focusing on the intermediates"",""Q1"":""In finding a career path"",""Q2"":""There are a lot of intermediates that may be good or bad but the final result is much more important\n""}",,,,,,,,,,,,,,,,,,
w3bae4c4,,308655,survey-text,38174,,"{""Q0"":""Find the best airport first""}",,,,,,,,,,,,,,,,,,
wee431a0,,254474,survey-text,26070,,"{""Q0"":""Look at the end of a path rather than the whole path itself 4 dollars lost vs 10+\n""}",,,,,,,,,,,,,,,,,,
wee431a0,,295364,survey-text,39883,,"{""Q0"":""You look at the goal not the path"",""Q1"":""Planning a future in relation to getting a job"",""Q2"":""You look at the end goal of a career rather than the initial starting position""}",,,,,,,,,,,,,,,,,,
wee431a0,,319279,survey-text,22887,,"{""Q0"":""Same aspect as learning the pathways and knowing the end goal""}",,,,,,,,,,,,,,,,,,
w47c00a7,,377356,survey-text,28645,,"{""Q0"":""""}",,,,,,,,,,,,,,,,,,
w47c00a7,,677779,survey-text,299413,,"{""Q0"":""I would tell them you can make the wrong ''clicks'' in life but you can always find a better way."",""Q1"":"""",""Q2"":""""}",,,,,,,,,,,,,,,,,,
w4baf788,,729370,survey-text,269392,,"{""Q0"":""I think the best strategy is clicking the fewest amount of last steps - this would involve clicking one on each of the three sides until you see the one valued at 48.  It usually provides the best information on where to navigate.  The first steps can be misleading and the second step isn't much better. ""}",,,,,,,,,,,,,,,,,,
w4baf788,,941590,survey-text,211182,,"{""Q0"":""The first and second steps are important, but understanding what and where your long term goal is is much more important in getting the most that you want out life."",""Q1"":""Advancing in my career path"",""Q2"":""Short term and mid term, I have to take some steps that might not be worth all that much, but it leads me to a place/job that I value greatly.""}",,,,,,,,,,,,,,,,,,
w4baf788,,1270330,survey-text,327706,,"{""Q0"":""I may have learned the wrong lesson from Flight Planning.  All steps are important and decisions should be made with long-term objectives in mind.""}",,,,,,,,,,,,,,,,,,
wd13fd17,,1264277,survey-text,391662,,"{""Q0"":""I have learned that it is necessary to decide which set of consequences, short, medium, or long will produce the best overall outcome for me.""}",,,,,,,,,,,,,,,,,,
wd13fd17,,2623363,survey-text,1358031,,"{""Q0"":""Flight planning is a game that requires you to decide which level of consequences you want to learn more about. Then, you gather information about the possible consequences. After deciding which ways to move, you make your moves. The game has  ten rounds."",""Q1"":""An example from my life where this strategy might work well is when I am planning my budget, and I will be short of cash. "",""Q2"":""I figure out what I can spend at different phases to reach my end goal.""}",,,,,,,,,,,,,,,,,,
wd13fd17,,3817141,survey-text,1192604,,"{""Q0"":""The shortest route is less, as far gas is concerned. With that in mind, my route would be determined by the airport I intend to go to, and I would use the shortest route to it.""}",,,,,,,,,,,,,,,,,,
w3edf531,,626248,survey-text,37981,,"{""Q0"":""you click the direction but avoid a big loss by moving to the right""}",,,,,,,,,,,,,,,,,,
w3edf531,,762069,survey-text,134812,,"{""Q0"":""You can look at a loss and want to avoid it. But sometimes the the begging looks like a loss but you win in the end."",""Q1"":""I struggled with football I wasn't doing well. But I wanted to find a way and I didn't give up took losses but ended up winning becoming a pro in the sport."",""Q2"":""The journey looked uncertain and you lose in the beginning but you can win a lot in the end""}",,,,,,,,,,,,,,,,,,
w3edf531,,838860,survey-text,75754,,"{""Q0"":""To pick a place with a small loss then look for a bigger win by less time ""}",,,,,,,,,,,,,,,,,,
wd163123,,396470,survey-text,33389,,"{""Q0"":""Once the option is $48 on the far end of the bubbles, I would move on to that destination. ""}",,,,,,,,,,,,,,,,,,
wd163123,,688335,survey-text,290813,,"{""Q0"":""I learned that I should not be greedy on looking for clues once I found out that the highest possible amount is $48 for a destination. "",""Q1"":""An example would be is to be too greedy with physical possessions. Since I know that these things will deteriorate, I would value more in spending money with memories such as a vacation or concerts instead spending money on having a mansion that I cannot take care by myself. "",""Q2"":""I think it is similar because I am given a choice of money and I could replace that with physical possession that are worth money. The more I try to spend money on them, the more I would feel unsatisfied with my life because I would not be satisfied the more I have them, just like how I was not satisfies clicking in the destination too much and losing money. ""}",,,,,,,,,,,,,,,,,,
wd163123,,759591,survey-text,70234,,"{""Q0"":""I would first click until there is a small number and stop once I see that number and begin traveling. ""}",,,,,,,,,,,,,,,,,,
w3985653,,499796,survey-text,129046,,"{""Q0"":""I have been clicking the destinations furthest away, as those seem to have the highest values, while the gains and losses in between seem to have less of an overall impact on my final profit. I sometimes check the destination right before to see if it is going to harm me more than a couple clicks would.""}",,,,,,,,,,,,,,,,,,
w3985653,,837127,survey-text,336309,,"{""Q0"":""The long-term impact of your decisions will have a higher overall effect than in the short- and mid-term. Sometimes you have to take minor sacrifices on the way to greater gains."",""Q1"":""This could help when deciding on where I will work when I move to a new city. A job paying slightly higher wages with no upward mobility would have a high short-term advantage than a job with lower wages and more opportunities for professional growth, but the long-term advantages of the latter option would greatly outweigh taking the former option."",""Q2"":""This is similar in that the greater payout is attained by considering the further destination (long-term effect).""}",,,,,,,,,,,,,,,,,,
w3985653,,974895,survey-text,136746,,"{""Q0"":""I would find the price of the least expensive hotels in each of the farthest cities first, probably limiting myself to the two with fewer stops. If I have time to spare, I would check at least one other stop in each of the routes.""}",,,,,,,,,,,,,,,,,,
wdcf14be,,364970,survey-text,37469,,"{""Q0"":""I only clicked on one and if its negative I assume the one across is positive.""}",,,,,,,,,,,,,,,,,,
wdcf14be,,422686,survey-text,56704,,"{""Q0"":""Decisions affect the outcome"",""Q1"":""Investment"",""Q2"":""If you spend a lot of money of a high risk investment, it may or may not profit.""}",,,,,,,,,,,,,,,,,,
wdcf14be,,479211,survey-text,55522,,"{""Q0"":""See what my decisions would amount to and compare it to the rest. ""}",,,,,,,,,,,,,,,,,,
w38a2a9b,,291926,survey-text,21146,,"{""Q0"":""Look at what the long term outcome will be and judge the net value over the entire flight.""}",,,,,,,,,,,,,,,,,,
w38a2a9b,,383880,survey-text,90945,,"{""Q0"":""While you may be spending money or some time short term, it is worth it to find the long term value that will far outweigh the short term losses."",""Q1"":""Investing time into family, friends, or work and pushing harder to positively impact those portions of life for the long term."",""Q2"":""Scouting out a potential long term path by investing into it before blindly rushing into things can benefit relationships or work plans and performance.""}",,,,,,,,,,,,,,,,,,
w38a2a9b,,494082,survey-text,109198,,"{""Q0"":""Look for the best long term investment path and find sacrifices in the short term that will make the long term path or destination the most worthwhile.""}",,,,,,,,,,,,,,,,,,
w9d27259,,232023,survey-text,26508,,"{""Q0"":""Going to the end airports and seeing what the total $ is rather than clicking every single airport ""}",,,,,,,,,,,,,,,,,,
w9d27259,,329413,survey-text,96386,,"{""Q0"":""Plan ahead, but do not forget about what is in front of you. Being cautious is smart."",""Q1"":""When budgeting for a months expenses, you may have unexpected expenses at the end, or they may actually be expected and one should act accordingly."",""Q2"":""Learning to plan and be conscientious about the present and future is what makes this game similar to life.""}",,,,,,,,,,,,,,,,,,
w9d27259,,403231,survey-text,72802,,"{""Q0"":""Ensuring that one has enough for the final city is sorta like checking to see which airport had the most amount of earnings. You are making note of what comes at the end in order to prepare the beginning so you may allocate funds.""}",,,,,,,,,,,,,,,,,,
wd54617d,,272906,survey-text,21126,,"{""Q0"":""Look at the end destination to see where you want to end up.""}",,,,,,,,,,,,,,,,,,
wd54617d,,336598,survey-text,62685,,"{""Q0"":""It always best to look for the best outcome and then figure out how to get there."",""Q1"":""Planning for retirement."",""Q2"":""Knowing how you want to retire will give you the destination that you want and then you can figure out how you can get there.""}",,,,,,,,,,,,,,,,,,
wd54617d,,399827,survey-text,62207,,"{""Q0"":""Figure out which end path has the lowest prices and figure out how to get there.""}",,,,,,,,,,,,,,,,,,
w7a9c3a6,,458919,survey-text,58133,,"{""Q0"":""Knowing what your looking for. Once you find the highest total don't click any more""}",,,,,,,,,,,,,,,,,,
w7a9c3a6,,575370,survey-text,115446,,"{""Q0"":""Look ahead find want your looking for and go for it"",""Q1"":""When I wanted to buy a home. "",""Q2"":""I knew what I wanted. I looked around and then followed the best path to get there.""}",,,,,,,,,,,,,,,,,,
w7a9c3a6,,665261,survey-text,88868,,"{""Q0"":""Know the cheapest places. Then check routes that could be used in many routes""}",,,,,,,,,,,,,,,,,,
w3880591,,632260,survey-text,152689,,"{""Q0"":""I found at the start there were 3 ways to go and it was helpful to remember which of the 3 ways was the top payer... because it would be a different way the following round.""}",,,,,,,,,,,,,,,,,,
w3880591,,912985,survey-text,279696,,"{""Q0"":""Sometimes you have to make sacrifices at the beginning to get the payoff at the end."",""Q1"":""I think it's important to look at the long term and don't look at the short term so much.  It's a particularly good strategy when it comes to saving/investing money -- especially if you have stocks or mutual funds that fluctuate in value based on the stock market... but over the long haul grow and grow."",""Q2"":""Pretty identical I would say in that sometimes you lose a little but over time, you over come your small short term and mid term losses.""}",,,,,,,,,,,,,,,,,,
w3880591,,1327536,survey-text,413530,,"{""Q0"":""In this case, when I look at the map of the island, I see one airport that has 4 stops while the other airports have just 3.  I would avoid the 4 stop one as it's probably going to be the most expensive. From there I would just look at the other two airports to see which is cheapest.""}",,,,,,,,,,,,,,,,,,
wa4db176,,503094,survey-text,44266,,"{""Q0"":""Consider all options and outcomes""}",,,,,,,,,,,,,,,,,,
wa4db176,,634496,survey-text,130383,,"{""Q0"":""Its really analyzing the different features and pitfalls of life recognizing analyzing"",""Q1"":""The decision to move in with my mother "",""Q2"":""it took many different factors of decision.""}",,,,,,,,,,,,,,,,,,
wa4db176,,930814,survey-text,295249,,"{""Q0"":""Do a couple then choose a destination so as not to use to much time which is also money.""}",,,,,,,,,,,,,,,,,,
w2e69ef4,,952752,survey-text,211629,,"{""Q0"":""Well I realized by the 5th or 6th round that the first circles in each direction were minimal gain or loss. Should have figured that out by 4th. Then i clicked the outside corners of each direction and if the number was 24 or 48 i would click what's next to it and if that was a profit or  not too much of a loss i would go that way. But now i realize the circle in between the 2 in the four furthest areas was usually gonna be a very nominal gain or loss and I didn't need to open them likely.\nSo I would implement all of the above to find a good flight plan without spending too much on clicks""}",,,,,,,,,,,,,,,,,,
w2e69ef4,,1600785,survey-text,646994,,"{""Q0"":""Pay attention in life!! Take your time, analyze any repetitive things in life and see what steps are working well and which are not. Look for patterns in life, just like in the game. A pattern could be a bad or good pattern of eating, exercising/not exercising, being nice/not being nice to people."",""Q1"":""I have made good money in life but not great money because I took the job that had the most flexible hours, paid the most or close to for its field and NEVER went on to learn more so I could make more. I've had several jobs at investment banks and I'm only 52...I could see WHAT ELSE is important when deciding a job, what can I LEARN in a class or webinars that will increase my worth, what are ALL the benefits the company is offering that would make my overall salary HIGHER and a flexible schedule makes things a little easier but at what cost? IF I found a fixed hours job that paid 15 or more percent than what I am  making, it makes sense to not be so adamant about flexible hours...become a little less lazy!!\nIn other words, CHANGE patterns that I have used for 30 years and analyze things..like the WHOLE package a job offers..be patient, LEARN new skills, observe, analyze, think and THEN ACT!!"",""Q2"":""I didn't rush it because I enjoyed it actually very much but I am a big fan of t slot machines (haven't gone in several years...i always lose) and the dopamine rush of the game took some focus away and critical and analytical thinking...not until the 5th round or 6th did I say to myself \""slow down!! You're losing money for no reason except that you're not thinking and making moves without analyzing and noticing patterns.and seeing the big picture (more money). Once I did all of those things I did much better.\nNow I need to apply those steps to my career and other life areas. Very insightful project  you learn about yourself ""}",,,,,,,,,,,,,,,,,,
w2e69ef4,,1849482,survey-text,247661,,"{""Q0"":""I would find out the price of the city that I will most often pass through to get to all of the airports and the second most likely one.  I of course would make the least visits to cities as I could...though depending on hotel cost..that won't automatically save me money. But those are good starts""}",,,,,,,,,,,,,,,,,,
w00571d2,,409976,survey-text,11159,,"{""Q0"":""I don't know.""}",,,,,,,,,,,,,,,,,,
w00571d2,,465519,survey-text,54539,,"{""Q0"":""Find out what the results will be before deciding."",""Q1"":""Choosing a major based on the income potential."",""Q2"":""You make choices based on which choice gives you a bigger reward.""}",,,,,,,,,,,,,,,,,,
w00571d2,,488159,survey-text,21601,,"{""Q0"":""Check as much as possible.""}",,,,,,,,,,,,,,,,,,
w91834f4,,212375,survey-text,17135,,"{""Q0"":""I just looked at the end results and knew they would be bigger than the intermediate ones""}",,,,,,,,,,,,,,,,,,
w91834f4,,236399,survey-text,22991,,"{""Q0"":""Plan long term and then just get there"",""Q1"":""My career"",""Q2"":""I need to be looking forward and push through the obstacles""}",,,,,,,,,,,,,,,,,,
w91834f4,,293529,survey-text,56117,,"{""Q0"":""Look at the shorter routes and go for the hubs""}",,,,,,,,,,,,,,,,,,
w4ed2a39,,339715,survey-text,52016,,"{""Q0"":""Try to figure out a pattern. I knew that mostly across from negative money amounts there was likely a positive on the opposite end. ""}",,,,,,,,,,,,,,,,,,
w4ed2a39,,384637,survey-text,43902,,"{""Q0"":""Go for the risk and be willing to take leaps."",""Q1"":""Starting a new activity that you are nervous about or afraid to begin."",""Q2"":""Gambling.""}",,,,,,,,,,,,,,,,,,
w4ed2a39,,425357,survey-text,39714,,"{""Q0"":""Take educated guesses about the least expensive hotels based on the pattern they may show.""}",,,,,,,,,,,,,,,,,,
w0d98bea,,310119,survey-text,42150,,"{""Q0"":""just click the final destination, since the max is 48 go to the first green 48 you find. ""}",,,,,,,,,,,,,,,,,,
w0d98bea,,430957,survey-text,119826,,"{""Q0"":""just have a goal and do what you need to do to get there. "",""Q1"":""save enough money for a new car. sometimes you can bank extra cash, other times theres unexpected expenses but as long as i remain faitful to the goal in mind i can get it done. "",""Q2"":""pretty much how you will gain and lose money but in the end as long as you profit, its all good. ""}",,,,,,,,,,,,,,,,,,
w0d98bea,,464109,survey-text,32145,,"{""Q0"":""I honestly have no clue, need to see the game. ""}",,,,,,,,,,,,,,,,,,
w6d58a27,,789575,survey-text,22155,,"{""Q0"":""Remembering the highlighted areas.""}",,,,,,,,,,,,,,,,,,
w6d58a27,,855473,survey-text,64895,,"{""Q0"":""Pay attention to things along the way and learn from them."",""Q1"":""Planning a vacation for example."",""Q2"":""You need to pay attention and plan carefully.""}",,,,,,,,,,,,,,,,,,
w6d58a27,,895448,survey-text,38963,,"{""Q0"":""Paying attention.""}",,,,,,,,,,,,,,,,,,
w43c8e5a,,342473,survey-text,81859,,"{""Q0"":""Since you know the maximum reward is $48 and any intermediate loss cannot exceed this amount, it makes sense to only click on the final destinations to find the $48 reward and fly there without wasting additional clicks gathering unnecessary information.""}",,,,,,,,,,,,,,,,,,
w43c8e5a,,648267,survey-text,304734,,"{""Q0"":""By understanding what the ultimate reward may be for persevering to reach your goals, it is easier to accept the potential small losses you make encounter to get there. But do not sacrifice short term or midterm gain for ultimate loss. That loss could be far more detrimental to any gain obtained along the way."",""Q1"":""I decided to go to Nursing school in my late 20s. Almost all Nursing programs are a full-time commitment. Working full-time while enrolled full-time is nearly impossible when you have other life obligations. Short-term sacrifice of time, pay, and resources has allowed for the long-term reward of graduating and beginning a new career that will ultimately make up for those few losses."",""Q2"":""The ultimate reward made whatever short-term sacrifices I had to endure worth it.""}",,,,,,,,,,,,,,,,,,
w43c8e5a,,758021,survey-text,108697,,"{""Q0"":""Work backward from the destinations to the starting point noting the cheaper destinations along the way. Patterns of cheaper destinations should be followed and not information regarding all destinations is necessary to be most successful.""}",,,,,,,,,,,,,,,,,,
w3ecfc1d,,603264,survey-text,69437,,"{""Q0"":""When I found a good route, I took it, instead of continuing to try different combinations.   I tried to cut my losses.  I was happy enough with the $24 option at the end, because it was at least positive, and not in the red. ""}",,,,,,,,,,,,,,,,,,
w3ecfc1d,,740932,survey-text,136656,,"{""Q0"":""Flight Planning allows you to systematically go from low to mid to high level rewards/risk, to practice making these decisions in real life.  In real life, sometimes decisions get more 'weighty' as time goes by, and this prepares you for that. "",""Q1"":""The decision to leave my home and move to CA. "",""Q2"":""I had to do it systematically, and first decide an apt. would be good, and then decide to do that in a city a few hrs N of me, and when I saw I could pull that off, I just went ahead and moved to CA.""}",,,,,,,,,,,,,,,,,,
w3ecfc1d,,866726,survey-text,124769,,"{""Q0"":""I would learn their budget, and I would start the process, and when I found a route that fit their budget, I would buy it. Just like the Flight Plan game, when I found a way that was acceptable, I stopped looking. ""}",,,,,,,,,,,,,,,,,,
w536843c,,423612,survey-text,56357,,"{""Q0"":""To find a good flight plan without spending too much on clicks, it seems the best option is to focus on the \""long-term\"", or clicking only on the endpoint and following the path with the best value.""}",,,,,,,,,,,,,,,,,,
w536843c,,548831,survey-text,124198,,"{""Q0"":""Focus on the long term. Something might be gratifying instantly but it could mean nothing or even harm you later on."",""Q1"":""A decision in my own life that this strategy could be applied to might be deciding on a major in college."",""Q2"":""You could choose the major that would have the best payoff or most value to you in the long term.""}",,,,,,,,,,,,,,,,,,
w536843c,,625254,survey-text,75365,,"{""Q0"":""I could keep the long term, mid term, and short term consequences in mind. In this case, thinking of the long term (airport) might help guide me what cities/hotels I should pass through.""}",,,,,,,,,,,,,,,,,,
wba9cbda,,376572,survey-text,42439,,"{""Q0"":""Look at the end results and for any good end results, look into the paths to reach those results.""}",,,,,,,,,,,,,,,,,,
wba9cbda,,464553,survey-text,86971,,"{""Q0"":""To look at all your options and think about whether the end result is good and the journey to that result is worth it."",""Q1"":""Career building or job searching."",""Q2"":""You are looking for the best result that will benefit you the most in the long run, usually in the form of a larger salary or great benefits.""}",,,,,,,,,,,,,,,,,,
wba9cbda,,538964,survey-text,73379,,"{""Q0"":""To look at the end results and determine if the journey is worth it.""}",,,,,,,,,,,,,,,,,,
w0fcde04,,426527,survey-text,49962,,"{""Q0"":""I eventually learned that the ends of each branch were the only points I should check.""}",,,,,,,,,,,,,,,,,,
w0fcde04,,543862,survey-text,116318,,"{""Q0"":""Start by clicking on any of the most distant 6 destinations. As soon as you see a 48, stop clicking and use the arrows to go there."",""Q1"":""I can't really think of anything, huh."",""Q2"":""I'm lost on this one, sorry there.""}",,,,,,,,,,,,,,,,,,
w0fcde04,,618691,survey-text,73809,,"{""Q0"":""I will pay more attention to any hints that pop up, such as \""You should have picked a highlighted destination\"".  I was slow to learn that lesson in the prior game.""}",,,,,,,,,,,,,,,,,,
w638124b,,373734,survey-text,80158,,"{""Q0"":""I honestly spent the clicks only on the end flight circle. I usually just tried to find a 48 and then I would go straight for it. Of course the early and middle flight destinations might be negative, but in the end I know the 48 at the end will make up for it. It wasn't the perfect decisions in the end, but it was a very safe way to play.""}",,,,,,,,,,,,,,,,,,
w638124b,,573831,survey-text,199081,,"{""Q0"":""I do agree that looking at the end-game in life and just going through whatever downsides to reach it is a very safe way to go through life. I don't think it may be the best though. I feel like life isn't as simple as going through bad times to finally reach a happy goal. Usually you would want to experience the best of life early on, since in the end all people die. "",""Q1"":""I feel like this type of strategy might work for school life. If you know that in the end you will end up in a good university, I would sacrifice having to  potentially go through bad things in middle/high school."",""Q2"":""I think this is similar because in the end all you want is the good university. University matters the most in adult life as no one really cares about where you went to middle school or high school, they just want to see the big number at the end.""}",,,,,,,,,,,,,,,,,,
w638124b,,672146,survey-text,97300,,"{""Q0"":""The travel agent just wants to find an inexpensive route. This means that he doesn't want the most perfect route, but just one that would be cheaper than the average. I would just click the last city and find the cheapest hotel. If theyre all similar then I would click the second to last city that they hit.""}",,,,,,,,,,,,,,,,,,
wd829fe2,,952394,survey-text,91972,,"{""Q0"":""I've been looking forward to the destination profits/loss and not clicking every mid level stop. ""}",,,,,,,,,,,,,,,,,,
wd829fe2,,1442204,survey-text,488801,,"{""Q0"":""We must weigh out the consequences of our actions. Every step we take will either get us closer or further away from our goals. Sometimes we have to take what looks like a step back, or a sacrifice in the short term for the benefit of the long term. "",""Q1"":""Let's say I have $50 extra in my budget, I could spend the $50 entertaining friends, buying food and drinks. Or I could invest the money in stocks. What is my goal? Which choice will get me closer to my goal? Maybe I really need some time to unwind and enjoy company, then spending the money to entertain is a good choice for my mental/emotional health. Or perhaps it would be better for both the short and long term if I split the money up, I could invite fewer friends, and spend $25 on entertaining and add the remaining $25 to my investment account. "",""Q2"":""We must weigh the consequences of every choice, sometimes a sacrifice in the moment is worth it for the gain of the long term. ""}",,,,,,,,,,,,,,,,,,
wd829fe2,,1547717,survey-text,104463,,"{""Q0"":""I may have to look forward to the end results, skipping some of the in between stops. ""}",,,,,,,,,,,,,,,,,,
w7b387a9,,257504,survey-text,17352,,"{""Q0"":""think about long term goals""}",,,,,,,,,,,,,,,,,,
w7b387a9,,298007,survey-text,39479,,"{""Q0"":""i really don't know. try different options; some you win some you lose. keep moving."",""Q1"":""continuing to move even when confused."",""Q2"":""keep moving.""}",,,,,,,,,,,,,,,,,,
w7b387a9,,324964,survey-text,25950,,"{""Q0"":""just go with your gut""}",,,,,,,,,,,,,,,,,,
wac6bac8,,536877,survey-text,42756,,"{""Q0"":""Click on the boarder first, seems that's where the money is.""}",,,,,,,,,,,,,,,,,,
wac6bac8,,779230,survey-text,241344,,"{""Q0"":""Look further ahead for bigger rewards and the best way to get there, instead of rushing ahead in life without a clue as to what lies ahead."",""Q1"":""Getting a degree to make more money in the long run as opposed to working a low paying job because I have no skill set."",""Q2"":""There's a great reward and the means to get there can be planned out and implemented, as opposed to not having a plan and ending up where ever I end up.""}",,,,,,,,,,,,,,,,,,
wac6bac8,,850630,survey-text,70372,,"{""Q0"":""Try to plan it out as best as possible with the time I do have.""}",,,,,,,,,,,,,,,,,,
wa774cba,,345206,survey-text,22258,,"{""Q0"":""Luck""}",,,,,,,,,,,,,,,,,,
wa774cba,,420913,survey-text,74702,,"{""Q0"":""You need to look at long term results.  There could be ups and downs along the way."",""Q1"":""Selling my house.  It was a good decision for the long term to sell and downsize to a cheaper house."",""Q2"":""I had to take different paths to get to that result.""}",,,,,,,,,,,,,,,,,,
wa774cba,,466545,survey-text,44629,,"{""Q0"":""I would look at shortest but cheaper route.  ""}",,,,,,,,,,,,,,,,,,
wa774cba,,142234,survey-text,4928,,"{""Q0"":""Luck""}",,,,,,,,,,,,,,,,,,
wa774cba,,187089,survey-text,43840,,"{""Q0"":""Look at the long term result.  You will have up and downs in life"",""Q1"":""Sell my house.  "",""Q2"":""The long term goal was benefit.  But there were steps along the way.""}",,,,,,,,,,,,,,,,,,
wa774cba,,204913,survey-text,16820,,"{""Q0"":""""}",,,,,,,,,,,,,,,,,,
w7b4639d,,267428,survey-text,23050,,"{""Q0"":""Investigate the potential long-term consequences or rewards.""}",,,,,,,,,,,,,,,,,,
w7b4639d,,352985,survey-text,84537,,"{""Q0"":""Learning strategies to look beyond the short-term"",""Q1"":""Financial planning - Long term needs over short term wants"",""Q2"":""Buying things I want might be nice in the short term, but it takes away from the money that I could end the term with.""}",,,,,,,,,,,,,,,,,,
w7b4639d,,393874,survey-text,39869,,"{""Q0"":""Look for the best long-term solution""}",,,,,,,,,,,,,,,,,,
wbba3089,,297177,survey-text,33494,,"{""Q0"":""Click on the final destination until you find one that is $48.""}",,,,,,,,,,,,,,,,,,
wbba3089,,376717,survey-text,78529,,"{""Q0"":""Plan for a final outcome and move quickly."",""Q1"":""Buying socks, just buy the fist pair that looks good."",""Q2"":""You look for what you want and move to get it.""}",,,,,,,,,,,,,,,,,,
wbba3089,,435334,survey-text,57615,,"{""Q0"":""Find the best final destination and move towards it.""}",,,,,,,,,,,,,,,,,,
w1bf6e03,,448073,survey-text,44116,,"{""Q0"":""Life is not as crystal clear as this game is, sometimes the consequences are not known or as clear. ""}",,,,,,,,,,,,,,,,,,
w1bf6e03,,535053,survey-text,85974,,"{""Q0"":""Make relatively good choices and you should expect positive outcomes."",""Q1"":""Taking on an apprenticeship which has rewarded in a good pay after time and effort have paid off."",""Q2"":""I checked and knew what the end pay would be upon completing the apprenticeship program, I just had to complete the steps on the way there.""}",,,,,,,,,,,,,,,,,,
w1bf6e03,,671203,survey-text,135146,,"{""Q0"":""check a few of the the hotel prices on the way there, and then choose to go to the least expensive ones on the way there, hopefully saving money.""}",,,,,,,,,,,,,,,,,,
w77843bb,,644661,survey-text,67804,,"{""Q0"":""By only clicking on the last destination spots to see where the outcome is most rewarding.""}",,,,,,,,,,,,,,,,,,
w77843bb,,743627,survey-text,97936,,"{""Q0"":""Click smart and make limits"",""Q1"":""Going to college."",""Q2"":""I had to pick and choose which path would lead me to my road to success.""}",,,,,,,,,,,,,,,,,,
w77843bb,,846366,survey-text,101729,,"{""Q0"":""Choose the most cost efficient route. ""}",,,,,,,,,,,,,,,,,,
w4cdeb89,,665510,survey-text,251801,,"{""Q0"":""Start at the ends and work from there. All you have to do is find the best payout. Since you're told $48 is the highest payout for landing, and it seems that the final destination is the most rewarding, it's easy to ignore the linear options. If there are two high paying options that's when the first two options should be selected.""}",,,,,,,,,,,,,,,,,,
w4cdeb89,,944639,survey-text,278114,,"{""Q0"":""It's easy to plan your life if you can pay a small fee to see future outcomes. Bribe your way to success."",""Q1"":""Rigging games, insider trading."",""Q2"":""If life was as easy as the Flight Planning game we would all be rich.""}",,,,,,,,,,,,,,,,,,
w4cdeb89,,1325544,survey-text,379893,,"{""Q0"":""Seek the most rewarding path first. Estimate the prices of the shorter routes first and assume the longest route is going to be more expensive based on amount of hotel stays.""}",,,,,,,,,,,,,,,,,,
w7f70443,,289673,survey-text,21415,,"{""Q0"":""I only used the clicks to find where the maximum profit would be.""}",,,,,,,,,,,,,,,,,,
w7f70443,,390171,survey-text,99480,,"{""Q0"":""It is okay to use a small amount of money to evaluate your options about where to spend the most money."",""Q1"":""I think an example similar to this would be stocks."",""Q2"":""It is useful to pay someone for their professional advice about where to invest a good portion of your money.""}",,,,,,,,,,,,,,,,,,
w7f70443,,414597,survey-text,23414,,"{""Q0"":""Use the same strategy from Flight Planning in the Travel Agent game.""}",,,,,,,,,,,,,,,,,,
w3c68511,,240670,survey-text,38918,,"{""Q0"":""Only select a limited amount of airports in each round so the money isn't wasted.""}",,,,,,,,,,,,,,,,,,
w3c68511,,347164,survey-text,105485,,"{""Q0"":""Sometimes no matter how hard you try to plan, things will not turn out how you want them to."",""Q1"":""If you need to choose between 3 or 4 options, thinking through the next first step might be a good indicator for the whole decision."",""Q2"":""You can never really plan out the whole path, and once you get going you just need to continue on. ""}",,,,,,,,,,,,,,,,,,
w3c68511,,399081,survey-text,50912,,"{""Q0"":""Planning out the first point of the trip could help you forecast how the rest of the route needs to go.""}",,,,,,,,,,,,,,,,,,
w60ea35a,,658950,survey-text,60853,,"{""Q0"":""Wherever you find big losses click something near it to find a good one.""}",,,,,,,,,,,,,,,,,,
w60ea35a,,962069,survey-text,302113,,"{""Q0"":""If you know following one path will lead to nothing good you have to make a different choice to find something better."",""Q1"":""I had made a decision to marry my current husband and my life is very happy. If I had made the choice not to marry him, chances are my life would be very sad."",""Q2"":""When you know there is a profit when you reach your destination, most likely you will follow the path that leads there.""}",,,,,,,,,,,,,,,,,,
w60ea35a,,1138862,survey-text,175778,,"{""Q0"":""If I find an expensive airport, I should look somewhere close by to see if there is a really cheap one. I should keep checking prices until I find one that is inexpensive.""}",,,,,,,,,,,,,,,,,,
w24e6a96,,1545946,survey-text,229229,,"{""Q0"":""You can make more educated guesses on where it is rather then guessing.""}",,,,,,,,,,,,,,,,,,
w24e6a96,,2069694,survey-text,522720,,"{""Q0"":""Life is like a plane, finding which direction to go is part of it. You can try multiple destinations and they might not work, but its part of it."",""Q1"":""Learning what to be in the future. "",""Q2"":""I have to take a gamble to see if I enjoy this occupatiuon.""}",,,,,,,,,,,,,,,,,,
w24e6a96,,2119211,survey-text,48496,,"{""Q0"":""Use a pattern to find out where to go.""}",,,,,,,,,,,,,,,,,,
wbb086c7,,589767,survey-text,94522,,"{""Q0"":""Click on the final destination to reveal the outcome or click on adjacent arrows for a hint  ""}",,,,,,,,,,,,,,,,,,
wbb086c7,,857205,survey-text,266391,,"{""Q0"":""There's consequence to any decision you make in life"",""Q1"":""This apply to all choices in our daily life just going to the store could prove good or bad life is random"",""Q2"":""life is random no matter what path you choose it'll either be positive negative its not luck it's random ""}",,,,,,,,,,,,,,,,,,
wbb086c7,,1069859,survey-text,211594,,"{""Q0"":""Make as few stops as possible and only visit 1 or 2 cities""}",,,,,,,,,,,,,,,,,,
wf27b89e,,418064,survey-text,75696,,"{""Q0"":""The best thing to do is to just simply find the airport with the highest value. I think that clicking only the airports is the best way to maximize the profits, hoping that the first airport you click has the best yield. ""}",,,,,,,,,,,,,,,,,,
wf27b89e,,691624,survey-text,272538,,"{""Q0"":""I think the most important thing learned is that the main thing to do is to really focus in on the long term goal that they are aiming for. Understand that the goal you want to reach may have some small negative or positive consequences, but at the end the destination is the most important part. "",""Q1"":""This works especially well for me during school years, where I decide that my long term goal is to reach a certain gpa or grade. The actions that I do then are influenced by the end goal that I want to reach. "",""Q2"":""This situation is similar in that a lot of times in college, you will definitely fail and get negative consequences. However, if you keep looking towards your end goal and work towards it, you can eventually reach it even if in the moment it doesn't feel like it. ""}",,,,,,,,,,,,,,,,,,
wf27b89e,,796437,survey-text,103749,,"{""Q0"":""I think looking at the end goal of what you want to reach is the most important and trying to maximize your route to reach there is how the flight planning game taught me to make decisions.""}",,,,,,,,,,,,,,,,,,
w0ada0ff,,247583,survey-text,39611,,"{""Q0"":""there is  no way of knowing after the first clicks what the chances will be""}",,,,,,,,,,,,,,,,,,
w0ada0ff,,299426,survey-text,50833,,"{""Q0"":""dont rely on first impressions"",""Q1"":""not accepting instant gratification "",""Q2"":""you dont know based on instant reward what long term earning will be""}",,,,,,,,,,,,,,,,,,
w0ada0ff,,343582,survey-text,43123,,"{""Q0"":""dont rely on information given on the clicks and take a best guess""}",,,,,,,,,,,,,,,,,,
w7e21139,,382429,survey-text,118966,,"{""Q0"":""To increase my chances of finding a good flight, I need to find the plan that will lead me to the best long-term consequences. Spending too much on clicks may give me the best short-term consequences in terms of dollar values, but in the end, I still need to make the decision whether to turn right or left to get the best or worst long-term consequences.""}",,,,,,,,,,,,,,,,,,
w7e21139,,485973,survey-text,102515,,"{""Q0"":""It may take some risks with my decisions in the short run, but in the end, I may succeed in the long-run."",""Q1"":""For example, I can choose to stay home for weeks and sacrifice my own personal happiness to save lives in the long run. "",""Q2"":""I incur a loss in the short-run, but the achievements in the long-run are rewarding.""}",,,,,,,,,,,,,,,,,,
w7e21139,,513200,survey-text,26216,,"{""Q0"":""I would not pay for the clicks""}",,,,,,,,,,,,,,,,,,
wd66a71c,,185651,survey-text,14814,,"{""Q0"":""checking terminuses, hoping to find the 48""}",,,,,,,,,,,,,,,,,,
wd66a71c,,481389,survey-text,294730,,"{""Q0"":""Sometimes you have to lose some to win some"",""Q1"":""Sometimes you might have to take a step down to advance your goals"",""Q2"":""You lose some money in flight planning in order to make the most at the end,. ""}",,,,,,,,,,,,,,,,,,
wd66a71c,,519689,survey-text,37286,,"{""Q0"":""Setting a standard for the end ""}",,,,,,,,,,,,,,,,,,
wdc5ae23,,914687,survey-text,186451,,"{""Q0"":"" Strategy of good flight plan without spending too much on clicks.""}",,,,,,,,,,,,,,,,,,
wdc5ae23,,1352573,survey-text,436833,,"{""Q0"":""skills and experiences of others as well as their own when they approach a decision"",""Q1"":""My goals help you establish your priorities in life"",""Q2"":"" prepare a flight plan with using the  automatic flight rules during a good visibility""}",,,,,,,,,,,,,,,,,,
wdc5ae23,,1458224,survey-text,104617,,"{""Q0"":""consuming process and they would like to plan the trip as quickly as possible.""}",,,,,,,,,,,,,,,,,,
w98f1b99,,282797,survey-text,29437,,"{""Q0"":""Focus more on the long-term to make your decision based on that. ""}",,,,,,,,,,,,,,,,,,
w98f1b99,,346764,survey-text,62957,,"{""Q0"":""Make goals based on what you want in the long-term and keep working towards this"",""Q1"":""Going to grad school requires a lot of short-, mid-, and long-term decisions."",""Q2"":""Actually going to grad school is like landing on the airport, and you want to make the best decisions to get you to that point""}",,,,,,,,,,,,,,,,,,
w98f1b99,,369808,survey-text,22035,,"{""Q0"":""Taking the different stops along the way into account""}",,,,,,,,,,,,,,,,,,
w9485703,,477218,survey-text,73547,,"{""Q0"":""Find your options for what the ultimate ending consequence would be and then use judgement based on your 2nd and minor consequences(or reward!)""}",,,,,,,,,,,,,,,,,,
w9485703,,825697,survey-text,347472,,"{""Q0"":""Figure out where you want to ultimately be then evaluate the risks and benefits of the route that will lead you there."",""Q1"":""I want to become a program analyst for the U.S. Government. In order to do that I had to decide where I wanted to take classes to obtain a bachelors to work in this field. Did I want a cheap school that isn't accredited and didn't offer extensive knowledge and job placement or did I want a more expensive school that would ensure maximum benefit?"",""Q2"":""I knew what I wanted to do and what I need to get there but deciding on the path that was best depending what I want to get out of the schooling and how much I want to pay.""}",,,,,,,,,,,,,,,,,,
w9485703,,1096368,survey-text,269641,,"{""Q0"":""I would first decide which airport I thought was cheapest to land in and stay. Then I would evaluate the cost of each hotel along the way choosing the path almost backwards starting from end point to beginning keeping in mind I want the shortest and cheapest route.""}",,,,,,,,,,,,,,,,,,
wab86789,,1025260,survey-text,127060,,"{""Q0"":""I think the best way to finding a good flight plan is by listening to the tutor because they know what they are talking about. Like at the beginning of the game I was mainly focusing on the circles right next to the plane opposed to the landing area, so I was using more of my clicks then necessary. Towards round 7,8,9,10 then I was getting 'good job' from the game so I knew I was on the right track.""}",,,,,,,,,,,,,,,,,,
wab86789,,1321377,survey-text,295110,,"{""Q0"":""I would first say wherever you are going in life its going to be someone there to help and guide you along the path, so its just a matter of finding that right person. Because if I didn't have someone to guide me through my path in life I would have taken the long route and the one that costs the most money."",""Q1"":""This game is a great when it comes to finding a career that is right for you and even education. Like for me when going to school I didn't know what I wanted to major in so I believe I took the long complicated route because I didn't have any guidance and I didn't come up with a plan for my future."",""Q2"":""The is similar to the Flight Planning game because when you are organized you then are able to see much clearly and know exactly which path to take. Because by planning everything out then you're able to see the right way to go and the wrong way to go.""}",,,,,,,,,,,,,,,,,,
wab86789,,1447056,survey-text,124674,,"{""Q0"":""I would first look at the outer picture and then begin to look at the smaller picture and details in the flight plan.""}",,,,,,,,,,,,,,,,,,
wc9d5aa8,,619198,survey-text,24374,,"{""Q0"":""Knowing your destination ""}",,,,,,,,,,,,,,,,,,
wc9d5aa8,,705691,survey-text,85482,,"{""Q0"":""Always plan and know the consequences of your actions. Have a clear vision of you goals"",""Q1"":""Getting my education completed (degree) "",""Q2"":""Setting goals and achieve milestones""}",,,,,,,,,,,,,,,,,,
wc9d5aa8,,760143,survey-text,53445,,"{""Q0"":""Know the most efficient route ""}",,,,,,,,,,,,,,,,,,
wcff7f06,,275365,survey-text,27773,,"{""Q0"":""Focus on the long-term/large-scale destinations""}",,,,,,,,,,,,,,,,,,
wcff7f06,,343501,survey-text,67125,,"{""Q0"":""the long-term goals are the most important, sometimes it is worth a short-term cost to realize a long-term gain"",""Q1"":""attaining more education might delay entry to the workforce but increase salary potential"",""Q2"":""short term cost but long term gain""}",,,,,,,,,,,,,,,,,,
wcff7f06,,389386,survey-text,44856,,"{""Q0"":""select a short route, confirm cost at two (but likely not all three) stops""}",,,,,,,,,,,,,,,,,,
w02127c3,,588127,survey-text,40971,,"{""Q0"":""Remember that I only have a certain limit and I don't need to explore past that""}",,,,,,,,,,,,,,,,,,
w02127c3,,675244,survey-text,86115,,"{""Q0"":""It's not only the journey but the destination that counts"",""Q1"":""Buying a car, house, or shopping for insurance"",""Q2"":""The final product might have greater rewards as long as you research and find the best way to get there""}",,,,,,,,,,,,,,,,,,
w02127c3,,731472,survey-text,55225,,"{""Q0"":""Remember to find the most affordably route with the fewest stops""}",,,,,,,,,,,,,,,,,,
w54700f5,,617721,survey-text,42743,,"{""Q0"":""I clicked on the destinations first to find out which one has the highest pay off.""}",,,,,,,,,,,,,,,,,,
w54700f5,,714155,survey-text,95365,,"{""Q0"":""Look to the long term first. Plan for the future. "",""Q1"":""Saving money "",""Q2"":""You have to plan ahead for big expenses""}",,,,,,,,,,,,,,,,,,
w54700f5,,780493,survey-text,65312,,"{""Q0"":""Try to find the cheapest path in the quickest way""}",,,,,,,,,,,,,,,,,,
w63f8333,,1584069,survey-text,263068,,"{""Q0"":""Find the right corner and just aim for it. Don't worry about the middle spaces.""}",,,,,,,,,,,,,,,,,,
w63f8333,,1989690,survey-text,404598,,"{""Q0"":""It helps to do a little bit of research that has short term costs, it pays off in the long term."",""Q1"":""Spending a lot of time researching colleges/financial aid/scholarships. "",""Q2"":""If I spent more time (which in an opportunity cost way is money) researching cheaper colleges and better types of loans I would save money in the future. ""}",,,,,,,,,,,,,,,,,,
w63f8333,,2052157,survey-text,61418,,"{""Q0"":""Find the shortest route and click strategically""}",,,,,,,,,,,,,,,,,,
w90fa858,,366026,survey-text,46971,,"{""Q0"":""Prioritizing the search for high benefit destinations in the far corners then only having to decide between one or two routes.""}",,,,,,,,,,,,,,,,,,
w90fa858,,373556,survey-text,6520,,"{""Q0"":"""",""Q1"":"""",""Q2"":""""}",,,,,,,,,,,,,,,,,,
w90fa858,,399943,survey-text,25382,,"{""Q0"":""Deciding on the best destination and working my way backwards""}",,,,,,,,,,,,,,,,,,
w609c74e,,380986,survey-text,52334,,"{""Q0"":""Overall find the profitable end points, and then figure out the steps to get there.""}",,,,,,,,,,,,,,,,,,
w609c74e,,621977,survey-text,239983,,"{""Q0"":""find a good and feasible end goal, and then not let distractions prevent you from getting there. However, if things change, have to be ready to change and adapt to circumstances and maybe even change plans."",""Q1"":""Trying to find a feasible career or job to do, without a lot of, or any money to invest in training or education. Also taking into considerations limitations, appearance, age, ability and time needed to take care of family members. a lot of limits, with also a lot of things that jobs do not want."",""Q2"":""Always have to spend money for a job. (gas, car, clothes food for work, materials supplies, etc.)""}",,,,,,,,,,,,,,,,,,
w609c74e,,673119,survey-text,50109,,"{""Q0"":""Look at the endpoints first...?""}",,,,,,,,,,,,,,,,,,
wf06ee18,,569905,survey-text,74377,,"{""Q0"":""click random airport ""}",,,,,,,,,,,,,,,,,,
wf06ee18,,751140,survey-text,180138,,"{""Q0"":""Try out different opportunities in life. If something doesn't work, try something new."",""Q1"":""Going to college didn't work out form. so quickly came picked up coding self taught courses."",""Q2"":""these two parts leads in two different direction""}",,,,,,,,,,,,,,,,,,
wf06ee18,,837640,survey-text,85467,,"{""Q0"":""try not to stick to one direction, try out random spots on the routes.""}",,,,,,,,,,,,,,,,,,
wa6a83f9,,1607502,survey-text,28403,,"{""Q0"":""look only at final destinations""}",,,,,,,,,,,,,,,,,,
wa6a83f9,,2008628,survey-text,400093,,"{""Q0"":""Keep your eyes on the final goal! There may be ups and down before you get there, but remember where you're going."",""Q1"":""A plan for losing weight is an excellent example where this strategy works especially well."",""Q2"":""There are multiple choices of destinations. The most desirable would be the one with the greatest weight loss, The least desirable would lead to weight gain. There will be gains and losses along the way to the final destination.""}",,,,,,,,,,,,,,,,,,
wa6a83f9,,2216140,survey-text,206507,,"{""Q0"":""Look for the shortest route with the fewest stays. Eliminate the ones with the most stops. Look for the final city with the least expensive hotel. Go there with the fewest number of stops available.""}",,,,,,,,,,,,,,,,,,
wd478745,,573460,survey-text,43923,,"{""Q0"":""chec a couple of different points on a couple of paths but not all""}",,,,,,,,,,,,,,,,,,
wd478745,,738404,survey-text,163936,,"{""Q0"":""I would tell them to consider different paths, using the effects of each in short long and medium results"",""Q1"":""I am considering a move to a different state as Arizona is not good for me."",""Q2"":""I need to look at the advantages and possible costs for each city I am considering.""}",,,,,,,,,,,,,,,,,,
wd478745,,818874,survey-text,79443,,"{""Q0"":""by picking a point different routes would go through""}",,,,,,,,,,,,,,,,,,
w3fb6f9c,,303637,survey-text,69675,,"{""Q0"":""I initially bought the first circles closest to me, then purchased the circles after the one that had a green number. If more than one positive number was present, id buy both. ""}",,,,,,,,,,,,,,,,,,
w3fb6f9c,,412452,survey-text,107801,,"{""Q0"":""Plan out smaller decisions, as they can have long term impacts"",""Q1"":""you make a small decision to go back to school or get a new job that affects the rest of your life "",""Q2"":""the circles in the beginning are the first initial steps, then the path after is based on the decisions you make. ""}",,,,,,,,,,,,,,,,,,
w3fb6f9c,,444172,survey-text,30708,,"{""Q0"":""Its worthwhile to get a lot of prices so you are able to figure out the best route""}",,,,,,,,,,,,,,,,,,
w563a897,,553518,survey-text,59888,,"{""Q0"":""Evaluating short term and long term goals, then making a decision that is more profitable""}",,,,,,,,,,,,,,,,,,
w563a897,,803792,survey-text,249260,,"{""Q0"":""It is important to make evaluations, seek information which may be costly, before making your move"",""Q1"":""Investments, i need to learn to relax for a while, acquire the neccessary information before making an investment decision"",""Q2"":""Going in blindly because one is trying to circumvent the cost of information could be very costly and fatal""}",,,,,,,,,,,,,,,,,,
w563a897,,951768,survey-text,146946,,"{""Q0"":""Managing resources properly""}",,,,,,,,,,,,,,,,,,
wc4c7cde,,670295,survey-text,19277,,"{""Q0"":""Think about the long game.""}",,,,,,,,,,,,,,,,,,
wc4c7cde,,735983,survey-text,64680,,"{""Q0"":""It's a vague lesson but it enabled me to realize I am not good at navigating life."",""Q1"":""Selling products "",""Q2"":""You gotta make moves in the beginning and think about the mid and end game""}",,,,,,,,,,,,,,,,,,
wc4c7cde,,779201,survey-text,42208,,"{""Q0"":""I have to consider how much money goes into the route I choose plus hotels, etc. ""}",,,,,,,,,,,,,,,,,,
wcc26c89,,506752,survey-text,49460,,"{""Q0"":""I usually click the ends to show which would yield the most at the end to minimize the amount I spend""}",,,,,,,,,,,,,,,,,,
wcc26c89,,850281,survey-text,342503,,"{""Q0"":""Well I would say that sometimes in life you have to plan something to find out that best way to approach something."",""Q1"":""If you are at a job and need to make impression you could plan out what you could do better?"",""Q2"":""Having to plan out how to solve a problem""}",,,,,,,,,,,,,,,,,,
wcc26c89,,974435,survey-text,123148,,"{""Q0"":""I would do the same so just plan out and see which is the cheapest route.""}",,,,,,,,,,,,,,,,,,
w77acd6d,,865640,survey-text,65047,,"{""Q0"":""I guess the idea was to click on the final destinations, and plan the route according to the most profitable destination.  Life is only about profit.""}",,,,,,,,,,,,,,,,,,
w77acd6d,,947552,survey-text,80908,,"{""Q0"":""Life is all about profit."",""Q1"":""Maybe invest in Bitcoin?  Forbes article said a possible $100K per in the future."",""Q2"":""Long term financial investment.""}",,,,,,,,,,,,,,,,,,
w77acd6d,,994551,survey-text,45997,,"{""Q0"":""Exactly the opposite goal I guess?""}",,,,,,,,,,,,,,,,,,
w0aacf67,,434633,survey-text,25742,,"{""Q0"":""Stop clicking when you find the highest value.""}",,,,,,,,,,,,,,,,,,
w0aacf67,,518475,survey-text,82827,,"{""Q0"":""Weigh the risks and rewards of your choices."",""Q1"":""deciding what to study in college"",""Q2"":""if i study something that will get me a high paying job, i can pay off my student loans faster""}",,,,,,,,,,,,,,,,,,
w0aacf67,,557505,survey-text,37986,,"{""Q0"":""check the prices of all possible routes before picking the cheapest one""}",,,,,,,,,,,,,,,,,,
w2b2dfe2,,528325,survey-text,16516,,"{""Q0"":""yes i learned many things""}",,,,,,,,,,,,,,,,,,
w2b2dfe2,,597443,survey-text,68111,,"{""Q0"":""amazing and positive"",""Q1"":""arrows"",""Q2"":""no""}",,,,,,,,,,,,,,,,,,
w2b2dfe2,,727763,survey-text,129308,,"{""Q0"":""yes.""}",,,,,,,,,,,,,,,,,,
w5417aa2,,550493,survey-text,119379,,"{""Q0"":""Checking 2 of the middle routes and 1 of the last destinations. This helps cover a good path while only clicking up to 3 times. Check where your first step takes you.""}",,,,,,,,,,,,,,,,,,
w5417aa2,,753432,survey-text,201898,,"{""Q0"":""See the investment of your first step in a plan, and the results it will yield."",""Q1"":""Deciding to open an art business cost materials. plan out some paths to see your costs and profits."",""Q2"":""It costs time and money to begin a new business. You need to take time to find the best path that won't waste that investment.""}",,,,,,,,,,,,,,,,,,
w5417aa2,,1085775,survey-text,331334,,"{""Q0"":""Check 1 or 2 destinations at the end, as a beginning and middle path on different routes. Checking a last stop seemed most important to my route planning,""}",,,,,,,,,,,,,,,,,,
w1623f52,,527163,survey-text,144740,,"{""Q0"":""You can click the first destinations first (\""short terms\"") to see if they are profitable. If the first destination is profitable, you can repeat that same thing for the second and third stops. If an entire path pays out, and the final stop is worth 48, then it's likely the best path and you don't need to bother clicking the other paths.""}",,,,,,,,,,,,,,,,,,
w1623f52,,733427,survey-text,205235,,"{""Q0"":""If you want to consider the whole journey, you'll need to consider the short term before considering the mid or long term."",""Q1"":""Whether or not to apply for a better job in hopes of \""moving up\"" in the world."",""Q2"":""I'd need to consider whether or not the switch would benefit me in the short term if I were to get the position, and whether applying for the position at all would be worth it.""}",,,,,,,,,,,,,,,,,,
w1623f52,,877537,survey-text,143094,,"{""Q0"":""I would start by considering each potential \""first stop\"" and how their prices compared to the others. If I had time, I might also consider the second stop as well, but I probably wouldn't go as far as planning the final stop since it probably wouldn't be worth the time investment.""}",,,,,,,,,,,,,,,,,,
w801aa58,,322056,survey-text,40424,,"{""Q0"":""I found the most profitable final destination and went to that node""}",,,,,,,,,,,,,,,,,,
w801aa58,,384451,survey-text,61378,,"{""Q0"":""find the most profitable destination"",""Q1"":""best case scenario should be followed"",""Q2"":""its the same idea you want to maximize good outcomes""}",,,,,,,,,,,,,,,,,,
w801aa58,,657625,survey-text,272164,,"{""Q0"":""find the least connections to the final destination""}",,,,,,,,,,,,,,,,,,
w5a1c6a3,,326077,survey-text,45678,,"{""Q0"":""Always hit the end of a flight path first, to determine the net pay. Then if there is a repeat profit on certain flight paths, check intermediary steps in the flight to see net loss/profit.""}",,,,,,,,,,,,,,,,,,
w5a1c6a3,,646107,survey-text,318982,,"{""Q0"":""Well, I think the lesson learned is that you should always look at the big picture or the end-point of your goal, but that you should also make sure you examine intermediary steps toward that end goal to make sure the outcome is worth it. It doesn't matter if the end goal is substantial if you lose a lot of yourself or your resources along the way. For example, you might be lucky with lottery tickets and get a big payout eventually, but if you're spending a ton of money to get that big payout it's a net loss to you and not a benefit at all."",""Q1"":""This might work well for planning for a future career. For example, I always wanted to go back to school and earn a graduate degree in psychology. However, I don't see myself acting as a therapist or traditional psychologist and always liked to think of myself as a research psychologist. This means I wouldn't really be maximizing the pay benefits of getting such a degree, and in order to get it I would have to put myself into deep debt with student loans. "",""Q2"":""This is similar to the flight planning game because the end destination is an idealized goals that would have a high 'payout' in the form of the realization of my dreams. But before going to that end goal, I need to examine if the costs of going back to college- probably under student loan programs- would really be worth it. This is like the flight planning game because it doesn't do to just find a high pay-out destination, you also have to examine the costs in between of getting to that destination.""}",,,,,,,,,,,,,,,,,,
w5a1c6a3,,752856,survey-text,105704,,"{""Q0"":""Well, in this situation it would be good for the travel agent to just pick one of the airports that has the least stops on the way toward the goal. This would maximize payout while also saving the agent time on delicately researching every single possible flight plan.""}",,,,,,,,,,,,,,,,,,
w2a88215,,614736,survey-text,127004,,"{""Q0"":""Click on the final (long-term consequence) option first to determine what the biggest possible \""reward\"" could be. If they are all similar, click on the second (middle-term consequence) options to determine what the most profitable option is.""}",,,,,,,,,,,,,,,,,,
w2a88215,,989067,survey-text,373307,,"{""Q0"":""Think about what your long-term goals are first. What long-term goals would give you the biggest \""payoff\"" or enjoyment out of life?"",""Q1"":""Determining where to go for graduate school. Figuring out where one wants to ultimately end up career-wise or research-wise will help figure out the best place to go."",""Q2"":""Knowing what lies at the end (where you land in the game or what type of professor you want be in life) helps you decide what the first step should be (first move in the game or where to pursue a graduate degree in life).""}",,,,,,,,,,,,,,,,,,
w2a88215,,1100140,survey-text,110050,,"{""Q0"":""Find out the least expensive hotel in the final city.""}",,,,,,,,,,,,,,,,,,
w3f42919,,1393004,survey-text,29416,,"{""Q0"":""i just try to give the right flight""}",,,,,,,,,,,,,,,,,,
w3f42919,,1663087,survey-text,269074,,"{""Q0"":""TO CONCENTRATE"",""Q1"":""TO FOCUS"",""Q2"":""ON MOVING IN FLIGHT""}",,,,,,,,,,,,,,,,,,
w3f42919,,2109204,survey-text,445101,,"{""Q0"":""agent strategy and rules""}",,,,,,,,,,,,,,,,,,
w33d6c17,,268767,survey-text,40241,,"{""Q0"":""Click on the ending destination and work from there to plan""}",,,,,,,,,,,,,,,,,,
w33d6c17,,348614,survey-text,78838,,"{""Q0"":""Preplanning and taking risk is essential to reaching goals"",""Q1"":""Going to college"",""Q2"":""Planning and working towards a goal""}",,,,,,,,,,,,,,,,,,
w33d6c17,,384933,survey-text,35291,,"{""Q0"":""Click on the end results and work backwards""}",,,,,,,,,,,,,,,,,,
wc4cb9dd,,484306,survey-text,38249,,"{""Q0"":""Find the 48 and take that path""}",,,,,,,,,,,,,,,,,,
wc4cb9dd,,573065,survey-text,87756,,"{""Q0"":""Take the path that leads to the most profit in the end\n"",""Q1"":""During my stock trading"",""Q2"":""Wanting my end goal to be the most profitable""}",,,,,,,,,,,,,,,,,,
wc4cb9dd,,644738,survey-text,70670,,"{""Q0"":""I'd use the exact opposite strategy to determine my path""}",,,,,,,,,,,,,,,,,,
w39a04d0,,352710,survey-text,19177,,"{""Q0"":""using patterns to find the positives""}",,,,,,,,,,,,,,,,,,
w39a04d0,,452662,survey-text,98948,,"{""Q0"":""you should look at the positives and negatives of the path and decide which is best"",""Q1"":""what career is should take"",""Q2"":""because i have to look how it would help in the future""}",,,,,,,,,,,,,,,,,,
w39a04d0,,547792,survey-text,94127,,"{""Q0"":""i would try to find the best path with patterns""}",,,,,,,,,,,,,,,,,,
w9e2f290,,346529,survey-text,19950,,"{""Q0"":""You should check the destinations then the paths""}",,,,,,,,,,,,,,,,,,
w9e2f290,,414746,survey-text,67209,,"{""Q0"":""make sure the end destination is worth the cost of the path to get there"",""Q1"":""The choice of what school to go to"",""Q2"":""This is similar because the cost of the journey will be worth it in the end""}",,,,,,,,,,,,,,,,,,
w9e2f290,,459982,survey-text,44216,,"{""Q0"":""find the least costly path to the least costly airport""}",,,,,,,,,,,,,,,,,,
w20ce488,,333798,survey-text,29111,,"{""Q0"":""Check what a few end destinations would be like.""}",,,,,,,,,,,,,,,,,,
w20ce488,,407588,survey-text,72736,,"{""Q0"":""Check to see where you'll end up before you plan how to get there."",""Q1"":""Choosing a job opportunity."",""Q2"":""Thinking about moving up in a career and the salary that goes along with it.""}",,,,,,,,,,,,,,,,,,
w20ce488,,459055,survey-text,50405,,"{""Q0"":""Check as few hotels as possible.""}",,,,,,,,,,,,,,,,,,
w8f607a9,,338543,survey-text,37708,,"{""Q0"":""when you get a lot of negative numbers, grab the next positive one you see. if you get max immediately go for it without checking other ones""}",,,,,,,,,,,,,,,,,,
w8f607a9,,389647,survey-text,50093,,"{""Q0"":""snatch good opportunities as they come, wait for them a little"",""Q1"":""job-seeking for sure"",""Q2"":""do i get any job right away or do i wait for one in my field of study? that kind of thing""}",,,,,,,,,,,,,,,,,,
w8f607a9,,425591,survey-text,34931,,"{""Q0"":""not sure but we'll see""}",,,,,,,,,,,,,,,,,,
w08019c8,,877608,survey-text,355850,,"{""Q0"":""It's best to think ahead, to focus on the end destination instead of spending clicks on the stops you have to pass to reach your destination.""}",,,,,,,,,,,,,,,,,,
w08019c8,,2154951,survey-text,1276294,,"{""Q0"":""You should think ahead about the goal you'd like to accomplish. Don't be discouraged by minor setbacks, stay focused on your destination (the goal you'd like to accomplish)"",""Q1"":""I had to take some exams for a job I was interested in. I did not pass the first time, but they gave me a chance to retake the exams and on my second attempt I succeeded ."",""Q2"":""I kept in mind my end destination (the job I was interested in). Although at first I was disappointed, I didn't give up. Instead I decided to study harder and to try again.""}",,,,,,,,,,,,,,,,,,
w08019c8,,2536927,survey-text,380949,,"{""Q0"":""To find an inexpensive route, I think I would focus on the cost of the stay in the final city and try to find the shortest route possible to reach the end destination.""}",,,,,,,,,,,,,,,,,,
w2c542a2,,341010,survey-text,44738,,"{""Q0"":""Look and use the patterns (in life) to your advantage.""}",,,,,,,,,,,,,,,,,,
w2c542a2,,421976,survey-text,79957,,"{""Q0"":""Look for those patterns and be cost effective to maintain stability."",""Q1"":""Planning a family trip to my uncle's in Florida."",""Q2"":""In both you must manage your money and be cost effective.""}",,,,,,,,,,,,,,,,,,
w2c542a2,,477752,survey-text,54745,,"{""Q0"":""Go with the less populated route, therefore prices will be considerably lower of the others.""}",,,,,,,,,,,,,,,,,,
w05f59dc,,288155,survey-text,2799,,"{""Q0"":""""}",,,,,,,,,,,,,,,,,,
w05f59dc,,423218,survey-text,134057,,"{""Q0"":"""",""Q1"":""Well planning out your path and the choices you should make in advance is a good idea in many situations, small ones like what game to buy or what movie to see, or big ones like what to study in college."",""Q2"":""You have to plan based on what you know and you don't always have all the information""}",,,,,,,,,,,,,,,,,,
w05f59dc,,467480,survey-text,43244,,"{""Q0"":""I'd try to find a good path quickly without demanding the very very best path""}",,,,,,,,,,,,,,,,,,
w0f7e4ec,,342136,survey-text,41441,,"{""Q0"":""Try to find the most money made of the ultimate options available instead of the middle crossover because the big picture is worth small losses. ""}",,,,,,,,,,,,,,,,,,
w0f7e4ec,,485898,survey-text,142729,,"{""Q0"":""I would describe it as understanding that the goal is all about the end game. Small inconveniences may end up on your path but the prize at the end is worth it. "",""Q1"":""Deciding to go to graduate school, it is expensive and a lot of work but by the end of it I will be more qualified to do what I love and likely make more money off of it. "",""Q2"":""I have to see if this decision is worth it (similar to checking the price for $1), and then try to go down the path that will bring me the most success even if there are minor losses.""}",,,,,,,,,,,,,,,,,,
w0f7e4ec,,560299,survey-text,73366,,"{""Q0"":""I would check to see how expensive the prices are in the final city and once I found the cheapest then I would look to find the cheapest path to that city. ""}",,,,,,,,,,,,,,,,,,
w34a78f8,,640032,survey-text,238519,,"{""Q0"":""What I did to increase my chances of finding a good flight plan without clicking too often was looking at the profits I would get in the mid-term. If it was not profitable, I would look at a different mid-term plan. If I found one I liked, I would look at the short term plan next to see if that was profitable. Then, I would look at the long term plan and see if that was profitable and worth any short term loss and if it was, I would take that flight plan. ""}",,,,,,,,,,,,,,,,,,
w34a78f8,,752654,survey-text,111602,,"{""Q0"":""Sometimes the short term risks are worth the long term benefits."",""Q1"":""Going to college was expensive and stressful in the short term, but it should pay off in the long term."",""Q2"":""I lost money to take the chance that I will make money in the future.""}",,,,,,,,,,,,,,,,,,
w34a78f8,,875878,survey-text,122207,,"{""Q0"":""I will look at the cities in the middle of the paths first to determine how costly they can be.""}",,,,,,,,,,,,,,,,,,
w5008cde,,438236,survey-text,60042,,"{""Q0"":""Only click on destinations. If you clicked all but one destination and haven't seen the best reward, that must be what's left.""}",,,,,,,,,,,,,,,,,,
w5008cde,,678721,survey-text,239468,,"{""Q0"":""Take the time to explore all options so you can choose the best path"",""Q1"":""Choosing a career path - each path will have different requirements. The required years and type of schooling will have different costs but the careers at the end will have different pay and responsibilities."",""Q2"":""You need to weigh out the path and make sure that the costs (whether it be financial or otherwise) of your decision outweigh the end benefits.""}",,,,,,,,,,,,,,,,,,
w5008cde,,754439,survey-text,74679,,"{""Q0"":""First compare price of a hotel in each of the three destination cities.""}",,,,,,,,,,,,,,,,,,
w28940da,,247462,survey-text,25777,,"{""Q0"":""pick a different spot from where the highest value was before, quit clicking once you find the plus 48""}",,,,,,,,,,,,,,,,,,
w28940da,,318042,survey-text,69529,,"{""Q0"":""Think ahead about the longterm and downstream consequences of your actions"",""Q1"":""When i was deciding on graduate school I chose the program I thought would put me furthest ahead on the job market"",""Q2"":""I had to look ahead to see which programs have a prosperous future""}",,,,,,,,,,,,,,,,,,
w28940da,,351095,survey-text,32030,,"{""Q0"":""Settle once you have found what you think is the cheapest one rather than looking at all of them""}",,,,,,,,,,,,,,,,,,
w88f038f,,440743,survey-text,65835,,"{""Q0"":""I stop clicking as soon as I see the highest possible reward, or 2 negative rewards in a row.""}",,,,,,,,,,,,,,,,,,
w88f038f,,796337,survey-text,354589,,"{""Q0"":""You have to be careful and weigh all of your options before you start a course of action."",""Q1"":""Choosing to move out of my parents' house to live with my boyfriend was a risky maneuver. It is cheaper monetarily to live with my parents, but the mental and emotional health I gained was worth it."",""Q2"":""I had to think critically about not only the costs of finally living in this new apartment, but also the cost of moving and furnishings along the way.""}",,,,,,,,,,,,,,,,,,
w88f038f,,934920,survey-text,137554,,"{""Q0"":""Don't check every destination, just check a few.""}",,,,,,,,,,,,,,,,,,
wced2e78,,427893,survey-text,37463,,"{""Q0"":""Comparing the second and third clicks from each path to eachother""}",,,,,,,,,,,,,,,,,,
wced2e78,,506708,survey-text,77794,,"{""Q0"":""Look at the long-term effects of your actions"",""Q1"":""Career moves. My boyfriend and I are trying to figure out where we should take jobs so we can be near each other. "",""Q2"":""We may need to be apart for a little bit to get our careers started, but that will benefit us long-term""}",,,,,,,,,,,,,,,,,,
wced2e78,,564795,survey-text,57068,,"{""Q0"":""Look at cost of final city first""}",,,,,,,,,,,,,,,,,,
w30418a9,,345245,survey-text,31453,,"{""Q0"":""clicking destinations to find the +48 destination first""}",,,,,,,,,,,,,,,,,,
w30418a9,,478131,survey-text,131879,,"{""Q0"":""taking time to determine the most likely/profitable end goal before taking any steps means a higher return on any investment"",""Q1"":""Determining career goals"",""Q2"":""By figuring out your end goal you can determine the steps you can take to get there, such as spending on further education.""}",,,,,,,,,,,,,,,,,,
w30418a9,,551504,survey-text,72333,,"{""Q0"":""start by figuring out the end goal airport first to determine possible routes""}",,,,,,,,,,,,,,,,,,
