pid,action_times,actions,block,correct,delays,key_press,path,queries,questions,responses,rewards,rt,score,simulation_mode,state_rewards,time_elapsed,trial_index,trial_time,trial_id,trial_type,view_history
169,,,,,,,,,,"{""Q0"":""I learned that you can click any node and that it was best to click the outer nodes for finding the highest value of $48.""}",,23190,,,,1252712,,,,survey-text,
169,,,,,,,,,,"{""Q0"":""41"",""Q1"":""Male""}",,6413,,,,1655803,,,,survey-text,
100,,,,,,,,,,"{""Q0"":""There is no need to check the nodes in the middle, only the end.  Just find the +$48 and go for it and take the small loses on the way.""}",,43219,,,,974237,,,,survey-text,
100,,,,,,,,,,"{""Q0"":""30"",""Q1"":""Male""}",,8171,,,,1178099,,,,survey-text,
305,,,,,,,,,,"{""Q0"":""i should have clicked the corners in the beginning! to find the 48$ ones. dammit!""}",,28860,,,,902686,,,,survey-text,
305,,,,,,,,,,"{""Q0"":""43"",""Q1"":""female""}",,7719,,,,1088739,,,,survey-text,
365,,,,,,,,,,"{""Q0"":""I have learned not to click things to quickly and to always be quick with your decisions.""}",,32931,,,,802034,,,,survey-text,
365,,,,,,,,,,"{""Q0"":""33"",""Q1"":""Male""}",,9196,,,,1055589,,,,survey-text,
84,,,,,,,,,,"{""Q0"":""I learned to take find the value of the edge first. it will most likely have the max value. ""}",,29864,,,,641203,,,,survey-text,
84,,,,,,,,,,"{""Q0"":""22"",""Q1"":""Male""}",,11068,,,,824790,,,,survey-text,
25,,,,,,,,,,"{""Q0"":""To click on all the corner dots first. ""}",,21917,,,,693112,,,,survey-text,
25,,,,,,,,,,"{""Q0"":""58"",""Q1"":""female""}",,10022,,,,896230,,,,survey-text,
381,,,,,,,,,,"{""Q0"":""I've learned that the largest gains and losses appear to happen on the last spaces of each line. At the beginning I used to click the circles adjacent to the start point to see where I should go. However, I now click on the end of each path until I see a +48 and then I go that way.""}",,52275,,,,651103,,,,survey-text,
381,,,,,,,,,,"{""Q0"":""24"",""Q1"":""male""}",,16239,,,,847680,,,,survey-text,
370,,,,,,,,,,"{""Q0"":""Absolutely nothing.""}",,12293,,,,611518,,,,survey-text,
370,,,,,,,,,,"{""Q0"":""33"",""Q1"":""Female""}",,10094,,,,964307,,,,survey-text,
250,,,,,,,,,,"{""Q0"":""So far I notice that in order to escape the delay penalty, I have to click the furthest out branches first. Also, after I uncover the $48, it looks like there's a penalty for each subsequent click. So I want to find a $48 as fast as I can and then maneuver to it even if I can't see the path, since values increase as you move outward.""}",,56621,,,,2102526,,,,survey-text,
250,,,,,,,,,,"{""Q0"":""23"",""Q1"":""Female""}",,8439,,,,2288814,,,,survey-text,
327,"[6271, 7120, 8036]","[u'right', u'right', u'down']",training,,"[0, 0, 0]",,"[u'0', u'5', u'6', u'8']","{u'mouseover': {u'state': {u'target': [], u'time': []}, u'edge': {u'target': [], u'time': []}}, u'click': {u'state': {u'target': [u'7', u'8'], u'time': [2773, 4409]}, u'edge': {u'target': [], u'time': []}}, u'mouseout': {u'state': {u'target': [], u'time': []}, u'edge': {u'target': [], u'time': []}}}",,,"[-2, -8, 48]","[6263, 338, 404]",36.0,"[None, None, None]","[u'', -4, -4, -48, -48, -2, -8, 24, 48, 2, 4, -24, -48]",481176,9.0,30747.0,-1.84824368346445e+18,survey-text,
327,,,,,,,,,,"{""Q0"":""38"",""Q1"":""Female""}",,12546,,,,672262,,,,survey-text,
398,,,,,,,,,,"{""Q0"":""that some moves got me always 41 seconds""}",,33334,,,,1415816,,,,survey-text,
398,,,,,,,,,,"{""Q0"":""44"",""Q1"":""female""}",,16542,,,,1625821,,,,survey-text,
222,,,,,,,,,,"{""Q0"":""I learned that I need to click more than one node to keep from being penalized with more time. I am going to try to not waste so much money clicking on the nodes""}",,47810,,,,788830,,,,survey-text,
222,,,,,,,,,,"{""Q0"":""48"",""Q1"":""female""}",,10211,,,,1008758,,,,survey-text,
310,,,,,,,,,,"{""Q0"":""I have learned that I should check the nodes that are at the edge first. I was trying to be more prompt than the beginning of the training session. ""}",,278359,,,,1473130,,,,survey-text,
310,,,,,,,,,,"{""Q0"":""34"",""Q1"":""female""}",,30137,,,,1820960,,,,survey-text,
319,,,,,,,,,,"{""Q0"":""bot is toxic shouldn't pay when found 48""}",,12636,,,,319316,,,,survey-text,
319,,,,,,,,,,"{""Q0"":""24"",""Q1"":""female""}",,5915,,,,494530,,,,survey-text,
349,,,,,,,,,,"{""Q0"":""I learned that there is a very long delay before choosing a node. I skipped using the node inspector after awhile.""}",,72821,,,,933652,,,,survey-text,
349,,,,,,,,,,"{""Q0"":""29"",""Q1"":""Male""}",,14352,,,,1124632,,,,survey-text,
69,,,,,,,,,,"{""Q0"":""explore all locations""}",,8733,,,,1294658,,,,survey-text,
69,,,,,,,,,,"{""Q0"":""28"",""Q1"":""male""}",,11215,,,,1504196,,,,survey-text,
269,,,,,,,,,,"{""Q0"":""I learned that I should look before I go""}",,21746,,,,626705,,,,survey-text,
269,,,,,,,,,,"{""Q0"":""41"",""Q1"":""male""}",,8941,,,,902446,,,,survey-text,
358,,,,,,,,,,"{""Q0"":""I have learned to use the node inspector more often even though it costs me $1""}",,23042,,,,469322,,,,survey-text,
358,,,,,,,,,,"{""Q0"":""37"",""Q1"":""female""}",,7010,,,,659983,,,,survey-text,
230,,,,,,,,,,"{""Q0"":""I learned it is best to click on a couple of the circles that are opposite each other before making a decision.""}",,34075,,,,407752,,,,survey-text,
230,,,,,,,,,,"{""Q0"":""27"",""Q1"":""female""}",,7803,,,,582104,,,,survey-text,
135,,,,,,,,,,"{""Q0"":""I learned that there may not be a positive value of 48 within the nodes. I reconcile time and cost""}",,77762,,,,760493,,,,survey-text,
135,,,,,,,,,,"{""Q0"":""36"",""Q1"":""m""}",,10306,,,,980540,,,,survey-text,
153,,,,,,,,,,"{""Q0"":""I'm now clicking the dots farthest away from the starting point.  I'm also searching for the $48 dots and then sticking within that subset of dots while I'm deciding on my path.""}",,37297,,,,660840,,,,survey-text,
153,,,,,,,,,,"{""Q0"":""51"",""Q1"":""male""}",,10045,,,,901966,,,,survey-text,
236,,,,,,,,,,"{""Q0"":""I was looking for the best possible end node.  The final nodes were more important than the middle nodes because the values had a much larger impact.""}",,36156,,,,497412,,,,survey-text,
236,,,,,,,,,,"{""Q0"":""36"",""Q1"":""Male""}",,7357,,,,709766,,,,survey-text,
29,"[5520, 8182, 10319]","[u'left', u'left', u'down']",training,,"[3, 3, 39]",,"[u'0', u'9', u'10', u'12']","{u'mouseover': {u'state': {u'target': [], u'time': []}, u'edge': {u'target': [], u'time': []}}, u'click': {u'state': {u'target': [u'5', u'9'], u'time': [2353, 4495]}, u'edge': {u'target': [], u'time': []}}, u'mouseout': {u'state': {u'target': [], u'time': []}, u'edge': {u'target': [], u'time': []}}}",,,"[4, -8, 24]","[5513, 1126, 1615]",18.0,"[None, None, None]","[u'', -2, 4, 48, 24, -4, 8, -48, 24, 4, -8, 24, 24]",763543,9.0,123091.0,-1.461775893828862e+18,survey-text,
29,,,,,,,,,,"{""Q0"":""40"",""Q1"":""female""}",,6601,,,,1195498,,,,survey-text,
387,,,,,,,,,,"{""Q0"":""Clicking the outermost nodes and finding +48 was the key to it all.""}",,36459,,,,535155,,,,survey-text,
387,,,,,,,,,,"{""Q0"":""31"",""Q1"":""Male""}",,11936,,,,732028,,,,survey-text,
330,,,,,,,,,,"{""Q0"":""The larger amounts are always at the ends so I would check to see what direction I wanted to go in first.  I knew I would earn more than I lost by choosing to look.""}",,34977,,,,595989,,,,survey-text,
330,,,,,,,,,,"{""Q0"":""38"",""Q1"":""female""}",,12498,,,,814547,,,,survey-text,
217,,,,,,,,,,"{""Q0"":""Click end points until I find a 48, then go there. If I've clicked them all and there's no 48, go to the highest.""}",,25933,,,,537142,,,,survey-text,
217,,,,,,,,,,"{""Q0"":""28"",""Q1"":""Male""}",,4052,,,,1002098,,,,survey-text,
411,"[9543, 11302, 12176]","[u'left', u'left', u'up']",training,,"[0, 0, 0, 0, 0, 0]",,"[u'0', u'9', u'10', u'11']","{u'mouseover': {u'state': {u'target': [], u'time': []}, u'edge': {u'target': [], u'time': []}}, u'click': {u'state': {u'target': [u'3', u'7', u'8', u'4', u'11'], u'time': [2231, 3738, 5298, 6863, 8334]}, u'edge': {u'target': [], u'time': []}}, u'mouseout': {u'state': {u'target': [], u'time': []}, u'edge': {u'target': [], u'time': []}}}",,,"[4, -4, 48]","[9524, 1205, 349]",43.0,"[None, None, None]","[u'', -2, -8, -48, -48, -4, -8, 24, 24, 4, -4, 48, -24]",378019,9.0,18606.0,-3.0273172606858936e+18,survey-text,
411,,,,,,,,,,"{""Q0"":""22"",""Q1"":""male""}",,5291,,,,546619,,,,survey-text,
180,,,,,,,,,,"{""Q0"":""i made better decision and knew where to spend $1 to show the nodes""}",,44389,,,,751396,,,,survey-text,
180,,,,,,,,,,"{""Q0"":""23"",""Q1"":""female""}",,8187,,,,944359,,,,survey-text,
401,,,,,,,,,,"{""Q0"":""i learned to choose the end result because thats where the +48 is""}",,21520,,,,774508,,,,survey-text,
401,,,,,,,,,,"{""Q0"":""36"",""Q1"":""female""}",,12784,,,,979974,,,,survey-text,
161,,,,,,,,,,"{""Q0"":""Nothing!!! I found this utterly confusing.""}",,23930,,,,1127407,,,,survey-text,
469,,,,,,,,,,"{""Q0"":""first reveal the end nodes, when there are multiple equivalent value end nodes, reveal the nodes before each to find the bonus optimized path""}",,57959,,,,626886,,,,survey-text,
469,,,,,,,,,,"{""Q0"":""30"",""Q1"":""male""}",,14337,,,,838355,,,,survey-text,
276,,,,,,,,,,"{""Q0"":""Essentially I maintained the same strategy throughout the game: click on the end nodes to see if they contained a positive number (most often it was the left-hand side yielding $48, but not always), if not, keep clicking around each end node until I found one.""}",,63182,,,,665334,,,,survey-text,
276,,,,,,,,,,"{""Q0"":""27"",""Q1"":""female""}",,7902,,,,885185,,,,survey-text,
389,,,,,,,,,,"{""Q0"":""I am waiting until I have found the highest dollar value of the node before I move.""}",,39033,,,,631918,,,,survey-text,
389,,,,,,,,,,"{""Q0"":""40"",""Q1"":""Female""}",,18752,,,,892613,,,,survey-text,
107,,,,,,,,,,"{""Q0"":""What I've learned is to click the outside of the nodes to figure out the 48 node and then go to that one when you find it instead of clicking almost every node in front of you.""}",,52091,,,,1734073,,,,survey-text,
107,,,,,,,,,,"{""Q0"":""25"",""Q1"":""Male""}",,14475,,,,1950726,,,,survey-text,
87,,,,,,,,,,"{""Q0"":""That I am horrible at this game. Also that a positive number doesn't always lead to more money. Next time I will pay more attention ""}",,31905,,,,762343,,,,survey-text,
87,,,,,,,,,,"{""Q0"":""31"",""Q1"":""Female""}",,11636,,,,991098,,,,survey-text,
445,,,,,,,,,,"{""Q0"":""Stopping when I saw the highest amount.""}",,28084,,,,567266,,,,survey-text,
445,,,,,,,,,,"{""Q0"":""49"",""Q1"":""Male""}",,11223,,,,803765,,,,survey-text,
286,,,,,,,,,,"{""Q0"":""Finding the positive 48 first and moving accordingly. ""}",,16242,,,,600881,,,,survey-text,
286,,,,,,,,,,"{""Q0"":""26"",""Q1"":""Female""}",,10980,,,,833576,,,,survey-text,
420,,,,,,,,,,"{""Q0"":""I am using the node checker more to better plan my path to maximize my earnings""}",,26698,,,,772215,,,,survey-text,
420,,,,,,,,,,"{""Q0"":""42"",""Q1"":"" Male""}",,8380,,,,981031,,,,survey-text,
163,,,,,,,,,,"{""Q0"":""$48 is the most any node will pay, so click the furthest nodes to find $48, then move in that direction. I was originally clicking the closest nodes.""}",,66764,,,,734668,,,,survey-text,
163,,,,,,,,,,"{""Q0"":""39"",""Q1"":""Female""}",,20909,,,,1029830,,,,survey-text,
166,,,,,,,,,,"{""Q0"":""The need to stop, look and listen and follow through as planned while on the move of high end concepts expressed through an minor puzzle game.""}",,49463,,,,2167404,,,,survey-text,
166,,,,,,,,,,"{""Q0"":""41"",""Q1"":""MALE""}",,5598,,,,2590546,,,,survey-text,
32,,,,,,,,,,"{""Q0"":""I learned there was a penalty no matter if I wanted a preview or not""}",,25218,,,,967497,,,,survey-text,
32,,,,,,,,,,"{""Q0"":""33"",""Q1"":""female""}",,10044,,,,1160992,,,,survey-text,
434,,,,,,,,,,"{""Q0"":""I have learned to locate the largest positive amount available before moving.  That way, I am not blindly choosing a path.  If only this option were available in real life :)""}",,55024,,,,479203,,,,survey-text,
434,,,,,,,,,,"{""Q0"":""32"",""Q1"":""female""}",,5996,,,,676875,,,,survey-text,
407,,,,,,,,,,"{""Q0"":""I learned that it is best to look at the end nodes first as these contain the largest values and help trim down which paths to take. If there is a $48 dollar value (positive) it may just be best to take that route instead of wasting the probe cost. ""}",,71870,,,,392047,,,,survey-text,
407,,,,,,,,,,"{""Q0"":""23"",""Q1"":""Male""}",,6004,,,,554278,,,,survey-text,
197,,,,,,,,,,"{""Q0"":""Where to click on the web to get the most possible return""}",,24372,,,,634278,,,,survey-text,
197,,,,,,,,,,"{""Q0"":""47"",""Q1"":""male""}",,7347,,,,828867,,,,survey-text,
228,,,,,,,,,,"{""Q0"":""I clicked until I found a node with the maximum value, then went directly for it""}",,16302,,,,295522,,,,survey-text,
228,,,,,,,,,,"{""Q0"":""35"",""Q1"":""Male""}",,6161,,,,475710,,,,survey-text,
78,,,,,,,,,,"{""Q0"":""I learned to determine the value of the outer nodes first and work backwards""}",,233426,,,,1321582,,,,survey-text,
78,,,,,,,,,,"{""Q0"":""55"",""Q1"":""female""}",,18979,,,,1931003,,,,survey-text,
335,,,,,,,,,,"{""Q0"":""I need to check ending points instead of starting points. ""}",,27082,,,,934723,,,,survey-text,
335,,,,,,,,,,"{""Q0"":""33"",""Q1"":""female""}",,8342,,,,1235915,,,,survey-text,
115,,,,,,,,,,"{""Q0"":""I was viewing all of the nodes first, but figured out opening them all was a waste.""}",,36975,,,,824015,,,,survey-text,
115,,,,,,,,,,"{""Q0"":""34"",""Q1"":""Female""}",,9808,,,,1131479,,,,survey-text,
396,,,,,,,,,,"{""Q0"":""I have learned to start with the spaces that are furthest away and work closer.""}",,28342,,,,475732,,,,survey-text,
396,,,,,,,,,,"{""Q0"":""39"",""Q1"":""male""}",,15247,,,,691532,,,,survey-text,
77,,,,,,,,,,"{""Q0"":""NOT TO TRUST MY INSTINCTS. i should have uncovered more nodes""}",,53833,,,,567377,,,,survey-text,
77,,,,,,,,,,"{""Q0"":""43"",""Q1"":""male""}",,11499,,,,790177,,,,survey-text,
55,,,,,,,,,,"{""Q0"":""I have learned that once I find a node that is 48 to start making the move to that node instead of continuing to look at other nodes along the way like I did in the beginning.""}",,63091,,,,580238,,,,survey-text,
55,,,,,,,,,,"{""Q0"":""39"",""Q1"":""Male""}",,13294,,,,786428,,,,survey-text,
232,,,,,,,,,,"{""Q0"":""When I find a path that will reward me positively, I go for it.""}",,28934,,,,1133472,,,,survey-text,
232,,,,,,,,,,"{""Q0"":""65"",""Q1"":""male""}",,14773,,,,1427908,,,,survey-text,
415,,,,,,,,,,"{""Q0"":""""}",,5552,,,,1486339,,,,survey-text,
415,,,,,,,,,,"{""Q0"":""36"",""Q1"":""female""}",,5926,,,,1702168,,,,survey-text,
284,,,,,,,,,,"{""Q0"":""I learned that the best strategy was to check the end nodes.""}",,29077,,,,555281,,,,survey-text,
284,,,,,,,,,,"{""Q0"":""36"",""Q1"":""Female""}",,7648,,,,730246,,,,survey-text,
394,,,,,,,,,,"{""Q0"":""Clicking on the outer circles first, rather than trying to avoid a negative value on an initial move. Also, continuing to click through the outer circles until finding the highest value, or +48, whichever came first.""}",,55458,,,,476782,,,,survey-text,
394,,,,,,,,,,"{""Q0"":""34"",""Q1"":""Female""}",,11711,,,,693726,,,,survey-text,
265,,,,,,,,,,"{""Q0"":""Try to avoid an initial losing move""}",,37892,,,,412861,,,,survey-text,
265,,,,,,,,,,"{""Q0"":""59"",""Q1"":""male""}",,11176,,,,615347,,,,survey-text,
345,,,,,,,,,,"{""Q0"":""I realized that I should be going to the end point for reveal first""}",,17209,,,,511654,,,,survey-text,
345,,,,,,,,,,"{""Q0"":""43"",""Q1"":""Male""}",,8489,,,,711092,,,,survey-text,
298,,,,,,,,,,"{""Q0"":""The main lesson was that I make it my objective to find the +48 node as that offers the most reward even if I spend more on licking or getting to it. ""}",,46326,,,,515827,,,,survey-text,
298,,,,,,,,,,"{""Q0"":""28"",""Q1"":""Male""}",,6720,,,,711991,,,,survey-text,
43,,,,,,,,,,"{""Q0"":""I learned that the only node that you needed to click was one at the end of your movement to find the 48 point node.""}",,22719,,,,677049,,,,survey-text,
43,,,,,,,,,,"{""Q0"":""28"",""Q1"":""Male""}",,5035,,,,885671,,,,survey-text,
3,,,,,,,,,,"{""Q0"":""i figured out how i was supposed to click all the pathway i wanted to go before i moved""}",,37926,,,,843398,,,,survey-text,
3,,,,,,,,,,"{""Q0"":""31"",""Q1"":""female""}",,11086,,,,1065457,,,,survey-text,
433,,,,,,,,,,"{""Q0"":""I'm clicking different nodes than I would have otherwise and moving immediately when I see the +48.""}",,29300,,,,548857,,,,survey-text,
433,,,,,,,,,,"{""Q0"":""30"",""Q1"":""Male""}",,7894,,,,798956,,,,survey-text,
258,,,,,,,,,,"{""Q0"":""Clicking on the nodes that you have to end on is a good strategy. Ususally move once i find a 48 on the end nodes. ""}",,52829,,,,520366,,,,survey-text,
258,,,,,,,,,,"{""Q0"":""19"",""Q1"":""Male""}",,8738,,,,701873,,,,survey-text,
213,,,,,,,,,,"{""Q0"":""I'm looking for the positive 48 value and navigating to that.  I've learned that even with negative values all the way to the positive 48 it seems to be the most fruitful path to take since the negative values below have only added up to -10 at the lowest.""}",,52238,,,,548369,,,,survey-text,
213,,,,,,,,,,"{""Q0"":""29"",""Q1"":""Male""}",,5664,,,,2017783,,,,survey-text,
260,,,,,,,,,,"{""Q0"":""I learned to spend the dollar to see the spots with the money.""}",,9812,,,,778966,,,,survey-text,
260,,,,,,,,,,"{""Q0"":""24"",""Q1"":""Female""}",,5134,,,,986163,,,,survey-text,
83,,,,,,,,,,"{""Q0"":""Checking the nodes at the end and stopping when I see a 48 because that is the max I will get.""}",,42051,,,,1309106,,,,survey-text,
83,,,,,,,,,,"{""Q0"":""41"",""Q1"":""Male""}",,18463,,,,1564775,,,,survey-text,
17,,,,,,,,,,"{""Q0"":""It is best to simply look at the end points, and whichever node has the highest end value, move there. The highest is $48, so as soon as I find that one, just start moving to it.""}",,35880,,,,378674,,,,survey-text,
17,,,,,,,,,,"{""Q0"":""23"",""Q1"":""Male""}",,7849,,,,580771,,,,survey-text,
126,,,,,,,,,,"{""Q0"":""I think I have a good strategy figured out about which nodes to reveal.""}",,34113,,,,494175,,,,survey-text,
126,,,,,,,,,,"{""Q0"":""31"",""Q1"":""male""}",,11569,,,,790471,,,,survey-text,
130,,,,,,,,,,"{""Q0"":""Checking more ahead of time what the value was even though it cost $1""}",,18398,,,,1058322,,,,survey-text,
130,,,,,,,,,,"{""Q0"":""40"",""Q1"":""female""}",,15246,,,,1279720,,,,survey-text,
337,,,,,,,,,,"{""Q0"":""I decided at the end to only click the farthest nodes. Once I find a 48 I stop and move to it. If I only find 24s I check which path to is best.""}",,29008,,,,459282,,,,survey-text,
337,,,,,,,,,,"{""Q0"":""36"",""Q1"":""male""}",,7973,,,,1974631,,,,survey-text,
98,,,,,,,,,,"{""Q0"":""I've learned there is only one +48 at each of the three possible forks. Each node has a value equal to or greater than the previous node. Towards the end I only revealed the outer nodes and some nodes of only 2 of the 3 forks.""}",,121324,,,,625632,,,,survey-text,
98,,,,,,,,,,"{""Q0"":""29"",""Q1"":""Male""}",,8491,,,,854705,,,,survey-text,
59,,,,,,,,,,"{""Q0"":""I now know to keep clicking until you find the best possible score path, rather than to risk it once you think you have a good option. ""}",,37004,,,,457297,,,,survey-text,
59,,,,,,,,,,"{""Q0"":""27"",""Q1"":""male""}",,14071,,,,654387,,,,survey-text,
121,,,,,,,,,,"{""Q0"":""planning more efficiently and waiting to see what the future nodes have""}",,22664,,,,882587,,,,survey-text,
121,,,,,,,,,,"{""Q0"":""26"",""Q1"":""male""}",,6873,,,,1059224,,,,survey-text,
350,"[12742, 13565, 14421]","[u'left', u'left', u'up']",training,,"[0, 0, 0, 0, 0, 0, 0]",,"[u'0', u'9', u'10', u'11']","{u'mouseover': {u'state': {u'target': [], u'time': []}, u'edge': {u'target': [], u'time': []}}, u'click': {u'state': {u'target': [u'7', u'8', u'12', u'11', u'4', u'3'], u'time': [2114, 3701, 5618, 7167, 8766, 10239]}, u'edge': {u'target': [], u'time': []}}, u'mouseout': {u'state': {u'target': [], u'time': []}, u'edge': {u'target': [], u'time': []}}}",,,"[4, -4, 24]","[12736, 322, 329]",18.0,"[None, None, None]","[u'', 2, 8, -48, -24, 2, 8, -24, -48, 4, -4, 24, -48]",617503,9.0,24885.0,4.953541845127005e+17,survey-text,
350,,,,,,,,,,"{""Q0"":""55"",""Q1"":""Female""}",,12380,,,,835076,,,,survey-text,
63,,,,,,,,,,"{""Q0"":""I learned to click the nodes at the end first because they are the big ones.""}",,29188,,,,538972,,,,survey-text,
63,,,,,,,,,,"{""Q0"":""26"",""Q1"":""Male""}",,18640,,,,770685,,,,survey-text,
18,,,,,,,,,,"{""Q0"":""""}",,15055,,,,1104937,,,,survey-text,
18,,,,,,,,,,"{""Q0"":""39"",""Q1"":""female""}",,6485,,,,1307578,,,,survey-text,
96,,,,,,,,,,"{""Q0"":""MIGHT AS WELL PAY FOR ALL OF THEM.""}",,34520,,,,464743,,,,survey-text,
96,,,,,,,,,,"{""Q0"":""44"",""Q1"":""FEMALE""}",,11507,,,,687903,,,,survey-text,
50,,,,,,,,,,"{""Q0"":""using the inspector more ""}",,25549,,,,858406,,,,survey-text,
50,,,,,,,,,,"{""Q0"":""36"",""Q1"":""Male""}",,15513,,,,1135791,,,,survey-text,
312,"[11714, 18306, 19297]","[u'up', u'up', u'right']",training,,"[0, 0, 0, 0, 0, 0, 5]",,"[u'0', u'1', u'2', u'3']","{u'mouseover': {u'state': {u'target': [], u'time': []}, u'edge': {u'target': [], u'time': []}}, u'click': {u'state': {u'target': [u'11', u'3', u'8', u'7', u'4', u'12'], u'time': [2030, 3339, 5143, 7276, 8467, 10904]}, u'edge': {u'target': [], u'time': []}}, u'mouseout': {u'state': {u'target': [], u'time': []}, u'edge': {u'target': [], u'time': []}}}",,,"[-2, 4, 24]","[11695, 61, 471]",20.0,"[None, None, None]","[u'', -2, 4, 24, -24, -4, 4, -24, 24, -4, -8, -24, 24]",398622,9.0,33272.0,-3.1422420754550446e+18,survey-text,
312,,,,,,,,,,"{""Q0"":""31"",""Q1"":""Male,  Also I wanted to quickly write down from the previous question about what I was doing, etc. and changing plans through the tests.  I first started with the first space, but then moved to the last spaces once I saw they had the higher amts.  Something to plan for.  Then I went to first spaces when amts were the same because you would end up with less from the first spot if you didn't check if it were negative.""}",,86598,,,,1212853,,,,survey-text,
208,,,,,,,,,,"{""Q0"":""There is always just one node which is worth $48, so once I have figured out which node that is I don't need to keep spending a $1 to reveal the values and can move to said node.""}",,101729,,,,621322,,,,survey-text,
208,,,,,,,,,,"{""Q0"":""38"",""Q1"":""female""}",,10586,,,,843921,,,,survey-text,
390,,,,,,,,,,"{""Q0"":""the ends of the branches are the biggest winners or losers""}",,23349,,,,612916,,,,survey-text,
390,,,,,,,,,,"{""Q0"":""58"",""Q1"":""male""}",,12636,,,,889100,,,,survey-text,
326,,,,,,,,,,"{""Q0"":""I haven't changed anything. ""}",,12586,,,,744411,,,,survey-text,
326,,,,,,,,,,"{""Q0"":""42"",""Q1"":""Female""}",,8050,,,,952658,,,,survey-text,
202,,,,,,,,,,"{""Q0"":""I have to pay attention to the blue dots and remember the layout""}",,31311,,,,1256288,,,,survey-text,
202,,,,,,,,,,"{""Q0"":""44"",""Q1"":""female""}",,13496,,,,1475774,,,,survey-text,
34,,,,,,,,,,"{""Q0"":""I would of start out by finding the ending web. It doesn't matter if I lose money on the first two because the 3rd web always makes up for it.""}",,32813,,,,400581,,,,survey-text,
34,,,,,,,,,,"{""Q0"":""30"",""Q1"":""Male""}",,5232,,,,566183,,,,survey-text,
360,,,,,,,,,,"{""Q0"":""I learned that click on one of the closer circles is pointless because the large amounts are at the end of the line of circles. I learned to click on one of the nodes at the end and if it was -48 I would go to the opposite node to make sure that I get a positive 48.""}",,67718,,,,435454,,,,survey-text,
360,,,,,,,,,,"{""Q0"":""32"",""Q1"":""Female""}",,8855,,,,630281,,,,survey-text,
359,,,,,,,,,,"{""Q0"":""I am uncovering all the nodes to determine the most profitable path.  At first I was guessing.  Trying to save my $ 1""}",,54751,,,,1043141,,,,survey-text,
359,,,,,,,,,,"{""Q0"":""50"",""Q1"":""male""}",,17985,,,,1347086,,,,survey-text,
233,,,,,,,,,,"{""Q0"":""learned i always make the wrong choices and to afraid to risk a dollar ""}",,29304,,,,1098116,,,,survey-text,
233,,,,,,,,,,"{""Q0"":""35"",""Q1"":""female""}",,10920,,,,1368397,,,,survey-text,
80,,,,,,,,,,"{""Q0"":""I am looking for the bug dollar amounts first\n""}",,14728,,,,525686,,,,survey-text,
80,,,,,,,,,,"{""Q0"":""23"",""Q1"":""male""}",,6097,,,,732044,,,,survey-text,
158,,,,,,,,,,"{""Q0"":""I have learned that there does not seem to be any logic to what is going on. Finding green with the node inspector does not mean that there will be a gain by following in that direction. I did not realize it until too late, though.""}",,46774,,,,381394,,,,survey-text,
158,,,,,,,,,,"{""Q0"":""24"",""Q1"":""Male""}",,4930,,,,556453,,,,survey-text,
106,,,,,,,,,,"{""Q0"":""This game is to difficult. I prefer to save the $1 at the start and run through the course instead. ""}",,23956,,,,1491813,,,,survey-text,
106,,,,,,,,,,"{""Q0"":""32"",""Q1"":""MALE""}",,7730,,,,1673178,,,,survey-text,
103,,,,,,,,,,"{""Q0"":""I am clicking the node preview for $1 each time until I see a 48, or until I have clicked all of the end point nodes.""}",,37317,,,,1337420,,,,survey-text,
103,,,,,,,,,,"{""Q0"":""39"",""Q1"":""Female""}",,9562,,,,1562530,,,,survey-text,
92,,,,,,,,,,"{""Q0"":""I have learned that having extra information is a good thing.""}",,13890,,,,453047,,,,survey-text,
92,,,,,,,,,,"{""Q0"":""31"",""Q1"":""male""}",,6578,,,,628743,,,,survey-text,
226,,,,,,,,,,"{""Q0"":""I have learned how to better manage how much I spend to learn which spots to land on to earn the most money. At the beginning of the training session I was wasting a dollar to press each spot so that I knew how to make the best decision. By the middle and end of the training session I was only using a dollar to find out the value of certain spots and then I would make my decision. ""}",,134346,,,,805018,,,,survey-text,
226,,,,,,,,,,"{""Q0"":""28"",""Q1"":""female""}",,11790,,,,1017829,,,,survey-text,
19,,,,,,,,,,"{""Q0"":""Click on the final nodes to reveal the big numbers and ignore every node before it.""}",,33827,,,,546195,,,,survey-text,
19,,,,,,,,,,"{""Q0"":""29"",""Q1"":""Male""}",,10972,,,,741515,,,,survey-text,
60,,,,,,,,,,"{""Q0"":""I have learned that I can't win at this game""}",,20202,,,,1428222,,,,survey-text,
60,,,,,,,,,,"{""Q0"":""44"",""Q1"":""Female""}",,9466,,,,1654564,,,,survey-text,
443,,,,,,,,,,"{""Q0"":""I have learned to always check the nodes before moving. In the beginning I was just checking on one nodes but I went to checking all the corners nodes at the end of the rounds.""}",,59425,,,,609966,,,,survey-text,
443,,,,,,,,,,"{""Q0"":""29"",""Q1"":""male""}",,10768,,,,823121,,,,survey-text,
391,,,,,,,,,,"{""Q0"":""Nothing really, just looking for the 48.""}",,23605,,,,485051,,,,survey-text,
391,,,,,,,,,,"{""Q0"":""39"",""Q1"":""Female""}",,8069,,,,670954,,,,survey-text,
61,,,,,,,,,,"{""Q0"":""It was better to click the dots to learn the value before moving.\n""}",,19772,,,,777148,,,,survey-text,
61,,,,,,,,,,"{""Q0"":""40"",""Q1"":""female""}",,5942,,,,1029465,,,,survey-text,
8,,,,,,,,,,"{""Q0"":""Checking out my spots more often before moving.  Helped to make the most money.""}",,27208,,,,982343,,,,survey-text,
8,,,,,,,,,,"{""Q0"":""26"",""Q1"":""Male""}",,10033,,,,1175321,,,,survey-text,
51,,,,,,,,,,"{""Q0"":""I have learned that it is worth it to click and spend $1 to find out what is in the circle. I also learned that it is good to click on the outer circles. ""}",,72626,,,,585091,,,,survey-text,
51,,,,,,,,,,"{""Q0"":""27"",""Q1"":""Female""}",,6049,,,,761130,,,,survey-text,
423,,,,,,,,,,"{""Q0"":""I clicked on the end nodes so I wouldn't get a time delay. If the score was +48 I moved that direction without clicking anymore""}",,21761,,,,360174,,,,survey-text,
423,,,,,,,,,,"{""Q0"":""28"",""Q1"":""male""}",,4755,,,,540171,,,,survey-text,
82,,,,,,,,,,"{""Q0"":""I learned that the expert would begin by clicking the nodes of the furthest corners first so I did that. It also seems the experts would click more. I was reluctant to do this as you lose $1 per click but it seems to be worth it. ""}",,86480,,,,753794,,,,survey-text,
82,,,,,,,,,,"{""Q0"":""24"",""Q1"":""Female""}",,15094,,,,987391,,,,survey-text,
382,,,,,,,,,,"{""Q0"":""""}",,7354,,,,1187236,,,,survey-text,
382,,,,,,,,,,"{""Q0"":""30"",""Q1"":""female""}",,11026,,,,1429527,,,,survey-text,
308,,,,,,,,,,"{""Q0"":""I learned to check all the endpoints and that really is the only thing needed to determine your move. I will do that every time ""}",,35000,,,,553736,,,,survey-text,
308,,,,,,,,,,"{""Q0"":""20"",""Q1"":""female""}",,11765,,,,771527,,,,survey-text,
429,"[9907, 10579, 11231]","[u'up', u'up', u'left']",training,,"[0, 0, 0, 0]",,"[u'0', u'1', u'2', u'4']","{u'mouseover': {u'state': {u'target': [], u'time': []}, u'edge': {u'target': [], u'time': []}}, u'click': {u'state': {u'target': [u'12', u'11', u'4'], u'time': [3930, 6370, 8090]}, u'edge': {u'target': [], u'time': []}}, u'mouseout': {u'state': {u'target': [], u'time': []}, u'edge': {u'target': [], u'time': []}}}",,,"[4, 4, 48]","[9876, 139, 125]",53.0,"[None, None, None]","[u'', 4, 4, -48, 48, -2, 4, -48, -24, -2, -4, -48, 24]",560302,9.0,38477.0,-5.006809819184351e+18,survey-text,
429,,,,,,,,,,"{""Q0"":""37"",""Q1"":""male""}",,8806,,,,866002,,,,survey-text,
275,,,,,,,,,,"{""Q0"":""I learned to be more careful and plan my moves before actually moving.""}",,21571,,,,580669,,,,survey-text,
275,,,,,,,,,,"{""Q0"":""45"",""Q1"":""Female""}",,8250,,,,776868,,,,survey-text,
419,,,,,,,,,,"{""Q0"":""I learned to avoid the negative numbers, but what the experts would have done didn't influence me much.""}",,32198,,,,544987,,,,survey-text,
419,,,,,,,,,,"{""Q0"":""43"",""Q1"":""female""}",,6077,,,,729137,,,,survey-text,
454,,,,,,,,,,"{""Q0"":""I learned that it is worth spending the $1 to click on the nodes to find out the value, and to just focus on finding the value of the notes at the ends of the web. If the value is high enough it is worth any deduction along the way.""}",,132143,,,,608115,,,,survey-text,
454,,,,,,,,,,"{""Q0"":""40"",""Q1"":""Female""}",,17291,,,,824651,,,,survey-text,
299,,,,,,,,,,"{""Q0"":""MAXIMIZE ROUTE FOR TOTAL EARNING""}",,13886,,,,517391,,,,survey-text,
299,,,,,,,,,,"{""Q0"":""30"",""Q1"":""male""}",,6985,,,,745009,,,,survey-text,
245,,,,,,,,,,"{""Q0"":""It seems I need to click until I'm told to move""}",,17786,,,,692311,,,,survey-text,
245,,,,,,,,,,"{""Q0"":""54"",""Q1"":""female""}",,10869,,,,979144,,,,survey-text,
321,,,,,,,,,,"{""Q0"":""I'm clicking the first nodes and then deciding on what other nodes to click based on which first node makes me the most money (with the hope of finding a 48 dollar node at the end).""}",,70774,,,,534244,,,,survey-text,
321,,,,,,,,,,"{""Q0"":""49"",""Q1"":""male""}",,8231,,,,752226,,,,survey-text,
54,,,,,,,,,,"{""Q0"":""I have learned that the highest and lowest dollar amounts are in the final landing spaces so it is wisest to investigate those ones until I find one with 48 dollars.  At the beginning, I investigated the nearest nodes.""}",,53171,,,,540774,,,,survey-text,
54,,,,,,,,,,"{""Q0"":""23"",""Q1"":""Male""}",,8565,,,,747797,,,,survey-text,
374,,,,,,,,,,"{""Q0"":""I have learned that if a node in one of the extremities has a value V, then the one opposing it likely has a value -V. Also it seems like the nodes most immediate to the starting point have a value usually less than or equal to 4.""}",,85165,,,,1014396,,,,survey-text,
374,,,,,,,,,,"{""Q0"":""47"",""Q1"":""Male""}",,14094,,,,1272994,,,,survey-text,
241,,,,,,,,,,"{""Q0"":""I know to click on the furthest nodes since they are the make or break values.""}",,18296,,,,485901,,,,survey-text,
241,,,,,,,,,,"{""Q0"":""24"",""Q1"":""Male""}",,7207,,,,757597,,,,survey-text,
53,,,,,,,,,,"{""Q0"":""I learned to click all the way through a path to see if it is worth it to keep going and which space is best to end up on. ""}",,35742,,,,456723,,,,survey-text,
53,,,,,,,,,,"{""Q0"":""44"",""Q1"":""female ""}",,13532,,,,740481,,,,survey-text,
81,,,,,,,,,,"{""Q0"":""I learned that I should use the node inspector regardless of losing $1 every time I will use it. This will allow me to maximize my earnings.""}",,39234,,,,1293513,,,,survey-text,
81,,,,,,,,,,"{""Q0"":""25"",""Q1"":""male""}",,6201,,,,1492599,,,,survey-text,
191,,,,,,,,,,"{""Q0"":""working faster""}",,11907,,,,692745,,,,survey-text,
191,,,,,,,,,,"{""Q0"":""54"",""Q1"":""female""}",,11680,,,,917530,,,,survey-text,
42,,,,,,,,,,"{""Q0"":""not sure""}",,13808,,,,684111,,,,survey-text,
42,,,,,,,,,,"{""Q0"":""46"",""Q1"":""female""}",,6928,,,,864311,,,,survey-text,
155,,,,,,,,,,"{""Q0"":""I learned to minimize my node reveals and take the fastest path to +48. ""}",,22501,,,,1560857,,,,survey-text,
155,,,,,,,,,,"{""Q0"":""35"",""Q1"":""Male""}",,6510,,,,1753887,,,,survey-text,
297,,,,,,,,,,"{""Q0"":""Im checking the last bode i would land on""}",,28748,,,,612330,,,,survey-text,
297,,,,,,,,,,"{""Q0"":""30"",""Q1"":""female""}",,11860,,,,829498,,,,survey-text,
24,,,,,,,,,,"{""Q0"":""That negative scores closest to the spider do not mean that there wont be higher numbers behind them""}",,35589,,,,493771,,,,survey-text,
24,,,,,,,,,,"{""Q0"":""33"",""Q1"":""female""}",,15571,,,,706861,,,,survey-text,
295,,,,,,,,,,"{""Q0"":""I just had bad luck, I guess.  ""}",,20629,,,,2442600,,,,survey-text,
295,,,,,,,,,,"{""Q0"":""39"",""Q1"":""Male""}",,19243,,,,2657679,,,,survey-text,
86,,,,,,,,,,"{""Q0"":""I have learned that is seems random so I am just trying to play the same way each time. ""}",,28250,,,,444539,,,,survey-text,
86,,,,,,,,,,"{""Q0"":""33"",""Q1"":""female""}",,7005,,,,633548,,,,survey-text,
432,,,,,,,,,,"{""Q0"":""That the first node with the highest value will lead you on the path with the highest value.  I only clicked on node to start, but I think it was worth clicking all of the nodes, unless I clicked on a +4 to start""}",,67964,,,,617813,,,,survey-text,
432,,,,,,,,,,"{""Q0"":""61"",""Q1"":""female""}",,19613,,,,828410,,,,survey-text,
111,,,,,,,,,,"{""Q0"":""start moving once i found a 48 node, else keep looking""}",,25715,,,,327919,,,,survey-text,
111,,,,,,,,,,"{""Q0"":""38"",""Q1"":""male""}",,11005,,,,521832,,,,survey-text,
281,,,,,,,,,,"{""Q0"":""I've learned that big price differences occur in the fringe nodes. I focused on only inspecting the fringe nodes because they were the only ones that mattered.""}",,34067,,,,319909,,,,survey-text,
281,,,,,,,,,,"{""Q0"":""31"",""Q1"":""Male""}",,5655,,,,492304,,,,survey-text,
306,,,,,,,,,,"{""Q0"":""To click on the outermost ones to see where I could earn the most. ""}",,16406,,,,656744,,,,survey-text,
306,,,,,,,,,,"{""Q0"":""22"",""Q1"":""Female""}",,9089,,,,882748,,,,survey-text,
317,"[9993, 10709, 12249]","[u'right', u'right', u'down']",training,,"[0, 0, 0, 0, 0]",,"[u'0', u'5', u'6', u'8']","{u'mouseover': {u'state': {u'target': [], u'time': []}, u'edge': {u'target': [], u'time': []}}, u'click': {u'state': {u'target': [u'4', u'3', u'7', u'8'], u'time': [1859, 4085, 6241, 8368]}, u'edge': {u'target': [], u'time': []}}, u'mouseout': {u'state': {u'target': [], u'time': []}, u'edge': {u'target': [], u'time': []}}}",,,"[-2, -8, 48]","[9971, 183, 1013]",34.0,"[None, None, None]","[u'', -4, -4, -48, -48, -2, -8, 24, 48, 2, 4, -24, -48]",495787,9.0,33922.0,-1.84824368346445e+18,survey-text,
317,,,,,,,,,,"{""Q0"":""52"",""Q1"":""female""}",,8871,,,,714836,,,,survey-text,
274,"[6060, 7097, 7647]","[u'right', u'right', u'down']",training,,"[0, 0]",,"[u'0', u'5', u'6', u'8']","{u'mouseover': {u'state': {u'target': [], u'time': []}, u'edge': {u'target': [], u'time': []}}, u'click': {u'state': {u'target': [u'8'], u'time': [4800]}, u'edge': {u'target': [], u'time': []}}, u'mouseout': {u'state': {u'target': [], u'time': []}, u'edge': {u'target': [], u'time': []}}}",,,"[-2, -4, 48]","[6027, 492, 14]",41.0,"[None, None, None]","[u'', 4, -4, -48, 24, -2, -4, 24, 48, 4, -4, 48, -48]",575716,9.0,15045.0,3.2058837162677184e+17,survey-text,
274,,,,,,,,,,"{""Q0"":""26"",""Q1"":""Male""}",,7472,,,,773017,,,,survey-text,
152,,,,,,,,,,"{""Q0"":""I'm clicking the nodes quicker.""}",,16890,,,,971544,,,,survey-text,
152,,,,,,,,,,"{""Q0"":""63"",""Q1"":""Female""}",,15336,,,,1193765,,,,survey-text,
49,,,,,,,,,,"{""Q0"":""checking all the nodes and going to 48""}",,15661,,,,420318,,,,survey-text,
49,,,,,,,,,,"{""Q0"":""36"",""Q1"":""male""}",,14600,,,,623565,,,,survey-text,
339,,,,,,,,,,"{""Q0"":""Checking the end nodes only and moving as soon as I see the max""}",,23573,,,,646878,,,,survey-text,
339,,,,,,,,,,"{""Q0"":""57"",""Q1"":""male""}",,15046,,,,860430,,,,survey-text,
203,,,,,,,,,,"{""Q0"":""The first two choices I was looking for a pattern.  By the third I believe I figured out a rough idea.  By about the 5th I had a general strategy I was using.  First I was looking for the green number after revealing the 3 nodes.  I'd take that path.  If the next node was red, I'd go left.  If it was green, I'd go right.  That was the strategy and when I started using it it never failed to give me a profit.""}",,123928,,,,734457,,,,survey-text,
203,,,,,,,,,,"{""Q0"":""35"",""Q1"":""Male""}",,12490,,,,939763,,,,survey-text,
201,,,,,,,,,,"{""Q0"":""It honestly makes no difference unless you the odds of having -48. if we knew there is only going to be one then peeking make a difference only to choose the possible first step""}",,106248,,,,679389,,,,survey-text,
201,,,,,,,,,,"{""Q0"":""41"",""Q1"":""male""}",,14926,,,,871570,,,,survey-text,
471,,,,,,,,,,"{""Q0"":""I've learned to only click on the top outer nodes, don't click more than 3x, and if it's a 48 then go for it. I stopped not doing these things. ""}",,43786,,,,524623,,,,survey-text,
471,,,,,,,,,,"{""Q0"":""34"",""Q1"":""Female""}",,8475,,,,714682,,,,survey-text,
448,,,,,,,,,,"{""Q0"":""I thought I was doing well with one path but then learned I was not. ""}",,40190,,,,402711,,,,survey-text,
448,,,,,,,,,,"{""Q0"":""43"",""Q1"":""female""}",,13047,,,,636951,,,,survey-text,
302,,,,,,,,,,"{""Q0"":""I learned that the once you found the highest value you should just go for it.""}",,41243,,,,657350,,,,survey-text,
302,,,,,,,,,,"{""Q0"":""44"",""Q1"":""female""}",,10877,,,,860532,,,,survey-text,
186,,,,,,,,,,"{""Q0"":""You want to learn the values of the ending points first to maximize profit""}",,22400,,,,740004,,,,survey-text,
186,,,,,,,,,,"{""Q0"":""22"",""Q1"":""Male""}",,7870,,,,972947,,,,survey-text,
403,,,,,,,,,,"{""Q0"":""After the 3rd round I was confident there was a pattern. If I revealed one of the last 2 directions then the remaining direction was the opposite. So if I revealed -24 I would go to the opposite of that choice and it would be 24. But after the 6th round this seemed to no longer be the case???? So it was a guessing game after that. ""}",,136645,,,,677705,,,,survey-text,
403,,,,,,,,,,"{""Q0"":""23"",""Q1"":""female""}",,13427,,,,906254,,,,survey-text,
133,,,,,,,,,,"{""Q0"":""I was looking at the first moves initially.  But I noticed that they are usually low value.  So I started looking at the last move hoping to see a 48 payout.  I also noticed that the 1st and second moves have the lower values.  I think I did pretty well.""}",,73382,,,,713812,,,,survey-text,
133,,,,,,,,,,"{""Q0"":""41"",""Q1"":""male""}",,14678,,,,937130,,,,survey-text,
196,,,,,,,,,,"{""Q0"":""I learned that it's best to search for the highest possible node (48) rather than settling for a smaller node (24). Because of that, I became more discriminatory in my movements as the rounds went on.""}",,56638,,,,490501,,,,survey-text,
196,,,,,,,,,,"{""Q0"":""23"",""Q1"":""Female""}",,6989,,,,667368,,,,survey-text,
412,,,,,,,,,,"{""Q0"":""I should always select faster instead of think for longer times.""}",,38388,,,,729181,,,,survey-text,
412,,,,,,,,,,"{""Q0"":""30"",""Q1"":""Man""}",,10624,,,,914207,,,,survey-text,
383,,,,,,,,,,"{""Q0"":""I learned to find where the 48 dollars is before beginning to move.""}",,26820,,,,434127,,,,survey-text,
383,,,,,,,,,,"{""Q0"":""37"",""Q1"":""female""}",,10588,,,,681863,,,,survey-text,
5,"[16907, 17556, 18311]","[u'right', u'right', u'up']",training,,"[0, 0, 0, 0, 2, 2, 3, 3, 3, 3, 0]",,"[u'0', u'5', u'6', u'7']","{u'mouseover': {u'state': {u'target': [], u'time': []}, u'edge': {u'target': [], u'time': []}}, u'click': {u'state': {u'target': [u'11', u'12', u'8', u'7', u'3', u'4', u'6', u'5', u'1', u'2'], u'time': [2402, 3718, 5024, 6319, 7535, 8796, 10287, 11500, 14798, 16572]}, u'edge': {u'target': [], u'time': []}}, u'mouseout': {u'state': {u'target': [], u'time': []}, u'edge': {u'target': [], u'time': []}}}",,,"[4, 8, 48]","[16902, 145, 250]",50.0,"[None, None, None]","[u'', -2, -8, -24, -24, 4, 8, 48, 24, -2, 8, -24, -48]",712984,9.0,37858.0,4.0797524101430456e+18,survey-text,
5,,,,,,,,,,"{""Q0"":""24"",""Q1"":""Male""}",,8025,,,,931215,,,,survey-text,
148,,,,,,,,,,"{""Q0"":""In terms of the game, towards the middle of the game I learned that I need to first find what bonus lies at the end of the puzzle, and then see the steps that lead to that reward. I looked for nodes at the end with $48 bonus, and then picked the path that made me the most money and lose the least.""}",,118980,,,,760742,,,,survey-text,
148,,,,,,,,,,"{""Q0"":""31"",""Q1"":""Male""}",,17210,,,,1039939,,,,survey-text,
172,,,,,,,,,,"{""Q0"":""I learned to click on the nods to determine where the highest value was which i wasnt doing in the beggining ""}",,20594,,,,480017,,,,survey-text,
172,,,,,,,,,,"{""Q0"":""23"",""Q1"":""female""}",,6899,,,,664862,,,,survey-text,
168,,,,,,,,,,"{""Q0"":""I was mostly worried about maxing the end node at by round 10. I cared too much about the first nodes in round 1. If you can get to the max amount node, it didn't really matter if it took you a few clicks or lost a few dollars along the way.""}",,66421,,,,908029,,,,survey-text,
168,,,,,,,,,,"{""Q0"":""27"",""Q1"":""Male""}",,7965,,,,1095658,,,,survey-text,
410,,,,,,,,,,"{""Q0"":""I learned that it is worth finding where the +48 node was and once I found that going directly to it.""}",,39642,,,,428486,,,,survey-text,
410,,,,,,,,,,"{""Q0"":""29"",""Q1"":""Male""}",,17938,,,,638818,,,,survey-text,
2,,,,,,,,,,"{""Q0"":""To act quicker, but more deliberate based on what the nodes revealed. And also to use that function sparingly and try and optimize the shortest path to the most amount.""}",,42439,,,,494213,,,,survey-text,
2,,,,,,,,,,"{""Q0"":""29"",""Q1"":""female""}",,13114,,,,702752,,,,survey-text,
257,,,,,,,,,,"{""Q0"":""I have found it really hard to learn the pattern. I am still not sure exactly how would be the best way to make the most money. It just seems random""}",,36048,,,,776947,,,,survey-text,
257,,,,,,,,,,"{""Q0"":""28"",""Q1"":""female""}",,11268,,,,1000674,,,,survey-text,
212,,,,,,,,,,"{""Q0"":""Using the node inspector more effectively""}",,33711,,,,880431,,,,survey-text,
212,,,,,,,,,,"{""Q0"":""39"",""Q1"":""Male""}",,11130,,,,1073163,,,,survey-text,
430,,,,,,,,,,"{""Q0"":""I learned how to play this game the proper way, and to plan out my route, before putting it into action.""}",,35768,,,,1167996,,,,survey-text,
430,,,,,,,,,,"{""Q0"":""26"",""Q1"":""Female""}",,11733,,,,1359275,,,,survey-text,
320,"[4789, 6157, 7581]","[u'up', u'up', u'right']",training,,[],,"[u'0', u'1', u'2', u'3']","{u'mouseover': {u'state': {u'target': [], u'time': []}, u'edge': {u'target': [], u'time': []}}, u'click': {u'state': {u'target': [], u'time': []}, u'edge': {u'target': [], u'time': []}}, u'mouseout': {u'state': {u'target': [], u'time': []}, u'edge': {u'target': [], u'time': []}}}",,,"[-4, -4, -48]","[4778, 861, 920]",-56.0,"[None, None, None]","[u'', -4, -4, -48, -48, -2, -8, 24, 48, 2, 4, -24, -48]",408803,9.0,35845.0,-1.84824368346445e+18,survey-text,
320,,,,,,,,,,"{""Q0"":""52"",""Q1"":""female""}",,16334,,,,602355,,,,survey-text,
470,,,,,,,,,,"{""Q0"":""I learned that the amounts were different each move.  I'm not doing anything differently.""}",,50301,,,,863704,,,,survey-text,
470,,,,,,,,,,"{""Q0"":""45"",""Q1"":""Female""}",,13474,,,,1050929,,,,survey-text,
188,,,,,,,,,,"{""Q0"":""Learned the best strategy to go about getting a better bonus in the game. ""}",,42799,,,,618572,,,,survey-text,
188,,,,,,,,,,"{""Q0"":""27"",""Q1"":""Male""}",,12072,,,,928918,,,,survey-text,
437,,,,,,,,,,"{""Q0"":""I learned that my instinct is not good.""}",,12670,,,,639673,,,,survey-text,
246,,,,,,,,,,"{""Q0"":""I focused on a goal and found that little bumps along the way was worth it in the end. ""}",,32988,,,,647827,,,,survey-text,
246,,,,,,,,,,"{""Q0"":""36"",""Q1"":""Male""}",,7969,,,,848499,,,,survey-text,
48,,,,,,,,,,"{""Q0"":""i am clicking on the end boxes until i find one worth 48""}",,28418,,,,438692,,,,survey-text,
48,,,,,,,,,,"{""Q0"":""47"",""Q1"":""female""}",,9005,,,,624514,,,,survey-text,
10,,,,,,,,,,"{""Q0"":""I think it's worth is to pay the $1 to get the hints, and if you find 48 right away, go there!""}",,27272,,,,571318,,,,survey-text,
10,,,,,,,,,,"{""Q0"":""44"",""Q1"":""female""}",,7430,,,,759780,,,,survey-text,
162,,,,,,,,,,"{""Q0"":""I'm looking for the largest number I can find at the end of the path first, and then heading that way""}",,17594,,,,473911,,,,survey-text,
162,,,,,,,,,,"{""Q0"":""28"",""Q1"":""Female""}",,8446,,,,670005,,,,survey-text,
367,,,,,,,,,,"{""Q0"":""I did not learn anything.  I did not see any patterns.  Everything was random.""}",,30666,,,,643629,,,,survey-text,
367,,,,,,,,,,"{""Q0"":""51"",""Q1"":""female""}",,11701,,,,841858,,,,survey-text,
144,,,,,,,,,,"{""Q0"":""I don't really do anything different.""}",,14170,,,,428673,,,,survey-text,
144,,,,,,,,,,"{""Q0"":""28"",""Q1"":""Female""}",,7456,,,,613883,,,,survey-text,
118,,,,,,,,,,"{""Q0"":""At the beginning I wasn't clicking on the final nodes to determine where to go. I learned to click on the final nodes to see where the highest prize amount was located.""}",,46702,,,,464591,,,,survey-text,
118,,,,,,,,,,"{""Q0"":""26"",""Q1"":""female""}",,7340,,,,664616,,,,survey-text,
425,,,,,,,,,,"{""Q0"":""It's better to lose money by finding out what's in the nodes than it is to hit a dead end with a huge negative. Sticking to the outer edges first is the best strategy.""}",,50897,,,,534796,,,,survey-text,
425,,,,,,,,,,"{""Q0"":""21"",""Q1"":""Male""}",,9624,,,,763484,,,,survey-text,
35,,,,,,,,,,"{""Q0"":""I am clicking on all of the end nodes looking for +48 before I move""}",,27309,,,,458817,,,,survey-text,
35,,,,,,,,,,"{""Q0"":""38"",""Q1"":""M""}",,9634,,,,675053,,,,survey-text,
20,"[11015, 11703, 12752]","[u'right', u'right', u'down']",training,,"[0, 0, 0, 0, 0]",,"[u'0', u'5', u'6', u'8']","{u'mouseover': {u'state': {u'target': [], u'time': []}, u'edge': {u'target': [], u'time': []}}, u'click': {u'state': {u'target': [u'4', u'3', u'7', u'8'], u'time': [2341, 3954, 5970, 7541]}, u'edge': {u'target': [], u'time': []}}, u'mouseout': {u'state': {u'target': [], u'time': []}, u'edge': {u'target': [], u'time': []}}}",,,"[-2, -4, 48]","[11007, 160, 522]",38.0,"[None, None, None]","[u'', 4, -4, -48, 24, -2, -4, 24, 48, 4, -4, 48, -48]",491624,9.0,51893.0,3.2058837162677184e+17,survey-text,
20,,,,,,,,,,"{""Q0"":""57"",""Q1"":""male""}",,15598,,,,705172,,,,survey-text,
206,,,,,,,,,,"{""Q0"":""I have learned to use the node checker more often instead of starting off blindly""}",,40377,,,,625741,,,,survey-text,
206,,,,,,,,,,"{""Q0"":""20"",""Q1"":""female""}",,12594,,,,1028513,,,,survey-text,
457,,,,,,,,,,"{""Q0"":""I use more clicks to see which way pays most because I have plenty to work with and I will continue to make more.""}",,65309,,,,794359,,,,survey-text,
457,,,,,,,,,,"{""Q0"":""45"",""Q1"":""female""}",,16588,,,,1104642,,,,survey-text,
397,,,,,,,,,,"{""Q0"":""I learned that I can click multiple nodes at the beginning to learn their values. 18 seconds delay is a lot of waiting time for the not-optimal path.""}",,51804,,,,478784,,,,survey-text,
397,,,,,,,,,,"{""Q0"":""35"",""Q1"":""male""}",,10520,,,,669771,,,,survey-text,
455,,,,,,,,,,"{""Q0"":""I am noticing that the biggest values are at the end points so I usually just click on those.""}",,18182,,,,434081,,,,survey-text,
455,,,,,,,,,,"{""Q0"":""30"",""Q1"":""Male""}",,5799,,,,630588,,,,survey-text,
79,,,,,,,,,,"{""Q0"":""Click on the end bubbles first to find the highest rewards and not the best path. Once you have found the best reward then find the best path if it is 24, if it is 48 just go for it.""}",,45630,,,,676373,,,,survey-text,
79,,,,,,,,,,"{""Q0"":""33"",""Q1"":""Male""}",,7013,,,,887224,,,,survey-text,
140,,,,,,,,,,"{""Q0"":""I HAVE LEARNT TO ASK FOR NODE REVEAL ALL THE TIME""}",,29850,,,,1179870,,,,survey-text,
140,,,,,,,,,,"{""Q0"":""39"",""Q1"":""female""}",,14150,,,,1856025,,,,survey-text,
344,,,,,,,,,,"{""Q0"":""I learned to check the final nodes and find the highest value. I also learned to check the penultimate node to see if it was a negative value if there are more than one maximum values.""}",,47235,,,,415916,,,,survey-text,
344,,,,,,,,,,"{""Q0"":""28"",""Q1"":""Female""}",,6723,,,,605020,,,,survey-text,
47,,,,,,,,,,"{""Q0"":""I was more focused on changing the direction each time versus trying to take the same path.  I learned that each time, is in fact different.  I was more random towards the end.""}",,66308,,,,436294,,,,survey-text,
47,,,,,,,,,,"{""Q0"":""41"",""Q1"":""male""}",,8068,,,,628054,,,,survey-text,
88,,,,,,,,,,"{""Q0"":""Use the inspector more than just taking a chance""}",,21238,,,,646212,,,,survey-text,
88,,,,,,,,,,"{""Q0"":""45"",""Q1"":""Female""}",,10910,,,,870060,,,,survey-text,
259,,,,,,,,,,"{""Q0"":""I honestly started with just picking any path. But, then I started to choose based on previous choices.""}",,50002,,,,959478,,,,survey-text,
259,,,,,,,,,,"{""Q0"":""25"",""Q1"":""Female""}",,16591,,,,1186691,,,,survey-text,
183,,,,,,,,,,"{""Q0"":""Initially I was finding difficulty in earning points, then, later on, earned some good points and learnt how to earn""}",,68120,,,,950449,,,,survey-text,
183,,,,,,,,,,"{""Q0"":""32"",""Q1"":""Female""}",,15776,,,,1155657,,,,survey-text,
189,,,,,,,,,,"{""Q0"":""i learned that i should wait. i kept on forgetting about the penalty for moving too soon.""}",,34486,,,,1631888,,,,survey-text,
189,,,,,,,,,,"{""Q0"":""27"",""Q1"":""male""}",,11325,,,,1856844,,,,survey-text,
254,,,,,,,,,,"{""Q0"":""I've learned that I am apparently not a professional spider.""}",,59644,,,,637850,,,,survey-text,
254,,,,,,,,,,"{""Q0"":""30"",""Q1"":""Male""}",,25432,,,,898129,,,,survey-text,
139,,,,,,,,,,"{""Q0"":""The most efficient method is to find the +48 value and then make a path to it.""}",,26780,,,,378610,,,,survey-text,
139,,,,,,,,,,"{""Q0"":""37"",""Q1"":""Male""}",,8707,,,,584493,,,,survey-text,
458,,,,,,,,,,"{""Q0"":""I'm clicking on all of the outside circles like the expert would do.""}",,23723,,,,678707,,,,survey-text,
458,,,,,,,,,,"{""Q0"":""38"",""Q1"":""Female""}",,9993,,,,968000,,,,survey-text,
346,,,,,,,,,,"{""Q0"":""I think I learned to anticipate without using the $1 node deduction. I failed a few times but my biggest ones were also based on my own gut feeling.""}",,41074,,,,499044,,,,survey-text,
346,,,,,,,,,,"{""Q0"":""34"",""Q1"":""Male""}",,16938,,,,687944,,,,survey-text,
160,,,,,,,,,,"{""Q0"":""I'm revealing less of the map when I get a +48 early in.""}",,38782,,,,577303,,,,survey-text,
160,,,,,,,,,,"{""Q0"":""35"",""Q1"":""male""}",,11829,,,,832740,,,,survey-text,
41,,,,,,,,,,"{""Q0"":""I learned to just click on the furthest nodes. Anything in the middle is wasted. I just need to find the $48 node.""}",,24037,,,,1952209,,,,survey-text,
41,,,,,,,,,,"{""Q0"":""22"",""Q1"":""Female""}",,6269,,,,2186121,,,,survey-text,
431,,,,,,,,,,"{""Q0"":""using more than one dollar to click on the dot to see what the value is.""}",,33005,,,,520354,,,,survey-text,
431,,,,,,,,,,"{""Q0"":""41"",""Q1"":""female""}",,12127,,,,721721,,,,survey-text,
215,,,,,,,,,,"{""Q0"":""I just followed my own pattern, I didn't need much expert help. I found it faster, just finding the end node with $48, and going.""}",,49383,,,,621383,,,,survey-text,
215,,,,,,,,,,"{""Q0"":""30"",""Q1"":""Male""}",,6863,,,,840923,,,,survey-text,
392,,,,,,,,,,"{""Q0"":""I was sticking to the same path instead of trying multiple. ""}",,17892,,,,2042108,,,,survey-text,
392,,,,,,,,,,"{""Q0"":""25"",""Q1"":""female""}",,7875,,,,2220772,,,,survey-text,
33,,,,,,,,,,"{""Q0"":""I learned to click on the final spots to make my decision of where to go. ""}",,24905,,,,740409,,,,survey-text,
33,"[5211, 6030, 6848]","[u'left', u'left', u'up']",test,,[],,"[u'0', u'9', u'10', u'11']","{u'mouseover': {u'state': {u'target': [], u'time': []}, u'edge': {u'target': [], u'time': []}}, u'click': {u'state': {u'target': [u'3'], u'time': [3817]}, u'edge': {u'target': [], u'time': []}}, u'mouseout': {u'state': {u'target': [], u'time': []}, u'edge': {u'target': [], u'time': []}}}",,,"[-4, -4, 48]","[5207, 302, 307]",39.0,"[None, None, None]","[u'', 2, -4, -24, -24, 4, -8, -48, -48, -4, -4, 48, 48]",946704,24.0,16447.0,-7.913607226466677e+18,survey-text,
221,,,,,,,,,,"{""Q0"":""I only click on the outside nodes now. Once I reveal the $48 node, I go in that direction immediately.""}",,20488,,,,470990,,,,survey-text,
221,,,,,,,,,,"{""Q0"":""41"",""Q1"":""male""}",,8012,,,,657580,,,,survey-text,
351,,,,,,,,,,"{""Q0"":""I am looking at the edges first trying to find the highest, then back track to make sure I am making the most.""}",,32111,,,,512073,,,,survey-text,
351,,,,,,,,,,"{""Q0"":""28"",""Q1"":""female""}",,16307,,,,722102,,,,survey-text,
336,,,,,,,,,,"{""Q0"":""better to just look for the end result""}",,12498,,,,482421,,,,survey-text,
336,,,,,,,,,,"{""Q0"":""35"",""Q1"":""Male""}",,8953,,,,657202,,,,survey-text,
141,,,,,,,,,,"{""Q0"":""I'm only searching for the nodes with the $48 in them which only appear at the ends of each path so I should've only been clicking on the end nodes from the beginning and not waste my clicks on each individual node. ""}",,73856,,,,553354,,,,survey-text,
141,,,,,,,,,,"{""Q0"":""21"",""Q1"":""Male""}",,11005,,,,807057,,,,survey-text,
324,,,,,,,,,,"{""Q0"":""to inspect multiple spots, even if spend 5 or so dollars can insure I a higher payment""}",,24928,,,,517060,,,,survey-text,
324,,,,,,,,,,"{""Q0"":""31"",""Q1"":""female""}",,5468,,,,734706,,,,survey-text,
134,,,,,,,,,,"{""Q0"":""I've learned that for the most part it's about finding the max end node because the differences in the nodes leading up to those is small.""}",,41449,,,,550260,,,,survey-text,
134,,,,,,,,,,"{""Q0"":""25"",""Q1"":""nonbinary""}",,13181,,,,809880,,,,survey-text,
404,,,,,,,,,,"{""Q0"":""I've learned to click until I find a positive 48 somewhere, and then click the path leading up to it to make sure it isn't loaded with -48s.""}",,28310,,,,511090,,,,survey-text,
404,,,,,,,,,,"{""Q0"":""32"",""Q1"":""Female""}",,8030,,,,757278,,,,survey-text,
413,,,,,,,,,,"{""Q0"":""I am clicking on more nodes, beginning with all the adjacent nodes first and moving outward. I still do not know why I'm getting a delay penalty each time. ""}",,51312,,,,920679,,,,survey-text,
413,,,,,,,,,,"{""Q0"":""58"",""Q1"":""Female""}",,22923,,,,1158959,,,,survey-text,
442,,,,,,,,,,"{""Q0"":""I do better when I don't find out how much a node is""}",,15487,,,,530625,,,,survey-text,
442,,,,,,,,,,"{""Q0"":""59"",""Q1"":""female""}",,10442,,,,725087,,,,survey-text,
264,,,,,,,,,,"{""Q0"":""I've learned how to quickly evaluate which nodes tend to be the best (bottom on the right, top on the left side). I now rarely if ever select anything other than these two options as they are the fastest and most efficient way to find the most money. ""}",,47744,,,,429254,,,,survey-text,
264,,,,,,,,,,"{""Q0"":""31"",""Q1"":""Female""}",,16725,,,,626223,,,,survey-text,
165,,,,,,,,,,"{""Q0"":""I learned to look for the plus 48s!""}",,16140,,,,340639,,,,survey-text,
165,,,,,,,,,,"{""Q0"":""42"",""Q1"":""Female""}",,10842,,,,537436,,,,survey-text,
322,,,,,,,,,,"{""Q0"":""Look for the biggest goal and go for it.""}",,17844,,,,901641,,,,survey-text,
322,,,,,,,,,,"{""Q0"":""32"",""Q1"":""cisgender male""}",,14886,,,,1133882,,,,survey-text,
372,,,,,,,,,,"{""Q0"":""To click on the final node first. In the first few rounds I was getting a +24 or +48 result at the end so I thought I'd keep going that route until I hit a -48. ""}",,82480,,,,1024929,,,,survey-text,
372,,,,,,,,,,"{""Q0"":""36"",""Q1"":""male""}",,7671,,,,1230758,,,,survey-text,
277,,,,,,,,,,"{""Q0"":""I learned that the program wants me to click the nodes I could potentially land on last, and if I do that, then my penalty time is much less.""}",,54281,,,,824862,,,,survey-text,
277,,,,,,,,,,"{""Q0"":""40"",""Q1"":""gender nonconforming""}",,38318,,,,1113291,,,,survey-text,
76,,,,,,,,,,"{""Q0"":""I have learnt to plan well.""}",,29296,,,,1412072,,,,survey-text,
76,,,,,,,,,,"{""Q0"":""22"",""Q1"":""male""}",,12639,,,,1748854,,,,survey-text,
112,,,,,,,,,,"{""Q0"":""Clicking more on the outer edges.  Just learned that the opposing ends of an line aren't necessarily opposite in cost.  e.g. one end may say -48 but the other end isn't necessarily 48.""}",,79929,,,,757283,,,,survey-text,
112,,,,,,,,,,"{""Q0"":""44"",""Q1"":""female""}",,10679,,,,961066,,,,survey-text,
216,,,,,,,,,,"{""Q0"":""I ended up just clicking on the last bubble to figure out what the jackpot was for each one ""}",,28622,,,,501894,,,,survey-text,
368,,,,,,,,,,"{""Q0"":""i was getting a delay penalty on EVERY round and dont know why?""}",,36957,,,,1097626,,,,survey-text,
368,,,,,,,,,,"{""Q0"":""40"",""Q1"":""female""}",,10806,,,,1293201,,,,survey-text,
435,,,,,,,,,,"{""Q0"":""at the beginning of the session I clicked to reveal all of the outer nodes till i relized i really only needed to click until I uncovered a 48 node. Thus saving some dollar clicks.""}",,104915,,,,716317,,,,survey-text,
435,,,,,,,,,,"{""Q0"":""33"",""Q1"":""male""}",,15872,,,,1014235,,,,survey-text,
384,,,,,,,,,,"{""Q0"":""I learned that I can reveal all nodes as long as I don't move. It might cost me, but I end up making more in the end. What I'm doing differently is that I reveal nodes until I find a path that get's me to make the most.""}",,84254,,,,647101,,,,survey-text,
384,,,,,,,,,,"{""Q0"":""25"",""Q1"":""female""}",,8693,,,,875084,,,,survey-text,
405,,,,,,,,,,"{""Q0"":""I should click on the outside circles in the web first and if I get a max value one of $48 I should just go there right away. ""}",,39357,,,,549995,,,,survey-text,
405,,,,,,,,,,"{""Q0"":""25"",""Q1"":""Male""}",,7019,,,,732382,,,,survey-text,
361,,,,,,,,,,"{""Q0"":""I'm trying to use less uses and go for the first profit I see.""}",,41400,,,,595496,,,,survey-text,
361,,,,,,,,,,"{""Q0"":""22"",""Q1"":""Male""}",,9406,,,,833242,,,,survey-text,
369,,,,,,,,,,"{""Q0"":""moving faster, checking more nodes""}",,11080,,,,632410,,,,survey-text,
369,,,,,,,,,,"{""Q0"":""65"",""Q1"":""female""}",,8934,,,,824423,,,,survey-text,
467,,,,,,,,,,"{""Q0"":""I have learned to predict the highest value path quicker by finding the highest value end node and traveling to it.  This is a risky plan, though, becaue earlier nodes may cancel later success.""}",,103051,,,,720264,,,,survey-text,
467,,,,,,,,,,"{""Q0"":""55"",""Q1"":""Male""}",,12657,,,,939995,,,,survey-text,
187,,,,,,,,,,"{""Q0"":""I have learned that I should check the furthest nodes first, and once I find a +48 I should start moving. If I don't find the highest paying node fast enough I should move toward the best one I found.""}",,35263,,,,445818,,,,survey-text,
187,,,,,,,,,,"{""Q0"":""41"",""Q1"":""male""}",,6574,,,,631961,,,,survey-text,
224,,,,,,,,,,"{""Q0"":""Clicking in the final boxes at the end since they reveal the largest amount.""}",,34348,,,,1335160,,,,survey-text,
224,,,,,,,,,,"{""Q0"":""37"",""Q1"":""male""}",,8000,,,,1544020,,,,survey-text,
120,,,,,,,,,,"{""Q0"":""Just looking for the most maximum amount of rewards and quickly moving to that location without spending excess cash""}",,39573,,,,496442,,,,survey-text,
120,,,,,,,,,,"{""Q0"":""29"",""Q1"":""Male""}",,12707,,,,675023,,,,survey-text,
464,"[47814, 48423, 49142]","[u'left', u'left', u'up']",training,,"[3, 3, 3, 3, 3, 2, 2, 2, 3, 3, 0, 3, 0]",,"[u'0', u'9', u'10', u'11']","{u'mouseover': {u'state': {u'target': [], u'time': []}, u'edge': {u'target': [], u'time': []}}, u'click': {u'state': {u'target': [u'5', u'6', u'7', u'8', u'1', u'2', u'3', u'4', u'9', u'10', u'11', u'12'], u'time': [4948, 9228, 13412, 17788, 22149, 25566, 29101, 32509, 36677, 40924, 42548, 47069]}, u'edge': {u'target': [], u'time': []}}, u'mouseout': {u'state': {u'target': [], u'time': []}, u'edge': {u'target': [], u'time': []}}}",,,"[-4, -4, 48]","[47812, 118, 218]",28.0,"[None, None, None]","[u'', 2, -4, -24, -24, 4, -8, -48, -48, -4, -4, 48, 48]",553791,9.0,57389.0,-7.913607226466677e+18,survey-text,
464,,,,,,,,,,"{""Q0"":""37"",""Q1"":""Female""}",,11960,,,,743841,,,,survey-text,
444,,,,,,,,,,"{""Q0"":""I need to pick nodes ar the furthest points until I find +48 or 24, rather than picking the nodes closest to the middle.""}",,93565,,,,748296,,,,survey-text,
444,,,,,,,,,,"{""Q0"":""56"",""Q1"":""female""}",,17218,,,,1048366,,,,survey-text,
192,,,,,,,,,,"{""Q0"":""I learn to find the highest amount. I learn to click the corners randomly. ""}",,44187,,,,526849,,,,survey-text,
192,,,,,,,,,,"{""Q0"":""37"",""Q1"":""male""}",,11883,,,,769081,,,,survey-text,
244,"[7706, 8585, 9529]","[u'right', u'right', u'up']",training,,"[0, 0]",,"[u'0', u'5', u'6', u'7']","{u'mouseover': {u'state': {u'target': [], u'time': []}, u'edge': {u'target': [], u'time': []}}, u'click': {u'state': {u'target': [u'7'], u'time': [4536]}, u'edge': {u'target': [], u'time': []}}, u'mouseout': {u'state': {u'target': [], u'time': []}, u'edge': {u'target': [], u'time': []}}}",,,"[2, -4, 48]","[7701, 364, 425]",45.0,"[None, None, None]","[u'', -2, -4, 48, -24, 2, -4, 48, 24, -2, -8, -24, -24]",1469990,9.0,21657.0,2.593864447454748e+18,survey-text,
244,,,,,,,,,,"{""Q0"":""49"",""Q1"":""male""}",,10346,,,,1771012,,,,survey-text,
176,,,,,,,,,,"{""Q0"":""I learned to click the outside bubbles first and when I find the $48 that that is obviously the best path whether its over negatives or not.  At the beginning I was clicking close to the start and taking penalties.""}",,49859,,,,595317,,,,survey-text,
176,,,,,,,,,,"{""Q0"":""30"",""Q1"":""male""}",,10880,,,,794196,,,,survey-text,
373,,,,,,,,,,"{""Q0"":""I've learned the large amounts are only on the end nodes, so I only have to click the end nodes to find out where to go. At the beginning, I was clicking on the nodes directly to the spider. At the end, I just clicked on the end nodes until I found 48, then went there.""}",,48957,,,,659769,,,,survey-text,
373,,,,,,,,,,"{""Q0"":""34"",""Q1"":""female""}",,5466,,,,907441,,,,survey-text,
127,,,,,,,,,,"{""Q0"":""I started picking the same pattern in the end, which made me the same amount of money everytime""}",,43445,,,,481152,,,,survey-text,
127,,,,,,,,,,"{""Q0"":""34"",""Q1"":""Female""}",,16793,,,,714958,,,,survey-text,
229,,,,,,,,,,"{""Q0"":""I am not good at this! ""}",,9063,,,,1040010,,,,survey-text,
229,,,,,,,,,,"{""Q0"":""28"",""Q1"":""F""}",,8384,,,,1219075,,,,survey-text,
362,,,,,,,,,,"{""Q0"":""I learned that I could minimize my losses if I clicked on the end node to see the final amount and if I liked the amount choose a path to that node. before I wasn't aware of a pattern so I was clicking in one path repeatedly to see what would happen.""}",,253551,,,,1255217,,,,survey-text,
362,,,,,,,,,,"{""Q0"":""54"",""Q1"":""female""}",,20641,,,,1516114,,,,survey-text,
227,"[11987, 17658, 18281]","[u'up', u'up', u'left']",training,,"[0, 0, 0, 0, 0, 0, 4]",,"[u'0', u'1', u'2', u'4']","{u'mouseover': {u'state': {u'target': [], u'time': []}, u'edge': {u'target': [], u'time': []}}, u'click': {u'state': {u'target': [u'7', u'8', u'12', u'11', u'4', u'3'], u'time': [1906, 3427, 5211, 6950, 8723, 10416]}, u'edge': {u'target': [], u'time': []}}, u'mouseout': {u'state': {u'target': [], u'time': []}, u'edge': {u'target': [], u'time': []}}}",,,"[-4, -4, 24]","[11982, 163, 106]",10.0,"[None, None, None]","[u'', -4, -4, -24, 24, 2, -4, 24, -48, -2, 8, -48, -48]",476923,9.0,32610.0,-1.3896256955715195e+18,survey-text,
227,,,,,,,,,,"{""Q0"":""31"",""Q1"":""male""}",,6467,,,,688250,,,,survey-text,
461,,,,,,,,,,"{""Q0"":""Once I find a 48 I stop spending""}",,16206,,,,484379,,,,survey-text,
461,,,,,,,,,,"{""Q0"":""38"",""Q1"":""Male""}",,10904,,,,689166,,,,survey-text,
73,"[4596, 6795, 9124]","[u'up', u'up', u'right']",training,,[],,"[u'0', u'1', u'2', u'3']","{u'mouseover': {u'state': {u'target': [], u'time': []}, u'edge': {u'target': [], u'time': []}}, u'click': {u'state': {u'target': [u'1'], u'time': [3062]}, u'edge': {u'target': [], u'time': []}}, u'mouseout': {u'state': {u'target': [], u'time': []}, u'edge': {u'target': [], u'time': []}}}",,,"[4, 8, -24]","[4588, 1688, 1818]",-13.0,"[None, None, None]","[u'', 4, 8, -24, 24, -2, 4, -24, 48, 2, -8, 24, 48]",430215,9.0,32196.0,8.866052500453722e+18,survey-text,
73,,,,,,,,,,"{""Q0"":""48"",""Q1"":""female""}",,12888,,,,650465,,,,survey-text,
218,,,,,,,,,,"{""Q0"":""I learned that its best to see what end points are valued at than in between values.""}",,40010,,,,581805,,,,survey-text,
218,,,,,,,,,,"{""Q0"":""25"",""Q1"":""male""}",,8687,,,,823948,,,,survey-text,
210,,,,,,,,,,"{""Q0"":""I originally thought 48 would be at the end node all of the time, but there was one exception. The amount of tiles I needed to flip is less. ""}",,60970,,,,534819,,,,survey-text,
210,,,,,,,,,,"{""Q0"":""29"",""Q1"":""Male""}",,12156,,,,767826,,,,survey-text,
440,,,,,,,,,,"{""Q0"":""I learned that I suck at it but it was a fun game never the less.  I was focusing on the blue spots to get there.""}",,81494,,,,1486604,,,,survey-text,
440,,,,,,,,,,"{""Q0"":""61"",""Q1"":""female""}",,20871,,,,1713779,,,,survey-text,
463,,,,,,,,,,"{""Q0"":""Get the value of the outermost nodes first.  If the value is +48, that is best node to move to, regardless of other node values.""}",,36453,,,,908526,,,,survey-text,
463,,,,,,,,,,"{""Q0"":""45"",""Q1"":""female""}",,10617,,,,1094643,,,,survey-text,
220,,,,,,,,,,"{""Q0"":""I learned that it's wiser to just go some nodes so that I know my score will be up. At first, I was clicking all the nodes but lost money. I made a better decisions afterwards.""}",,75910,,,,566739,,,,survey-text,
220,,,,,,,,,,"{""Q0"":""23"",""Q1"":""Male""}",,12312,,,,797922,,,,survey-text,
128,,,,,,,,,,"{""Q0"":""laughing out loud!!!  there was NO way to win this game!!!  I tried several tactics but they all failed.  ""}",,32847,,,,815699,,,,survey-text,
128,,,,,,,,,,"{""Q0"":""58"",""Q1"":""female""}",,9037,,,,1021992,,,,survey-text,
200,,,,,,,,,,"{""Q0"":""Investing can help a more foreseeable outcome.  I started utilizing the hint and evaluating where the higher values were placed mostly rather than guessing.""}",,43048,,,,515786,,,,survey-text,
200,,,,,,,,,,"{""Q0"":""23"",""Q1"":""female""}",,9398,,,,744944,,,,survey-text,
119,,,,,,,,,,"{""Q0"":""I'm trying to maximize the amount of money I spend on clicks instead of clicking all over the board. I'm going after the bigger scores and not worrying so much about losing 4 or 8 dollars. ""}",,54995,,,,468465,,,,survey-text,
119,,,,,,,,,,"{""Q0"":""31"",""Q1"":""Female""}",,8069,,,,705172,,,,survey-text,
363,,,,,,,,,,"{""Q0"":""I am clicking on all three of the nodes directly next to where the spider is initially and moving toward the highest number shown.""}",,58367,,,,1372726,,,,survey-text,
363,,,,,,,,,,"{""Q0"":""32"",""Q1"":""female""}",,8468,,,,1685030,,,,survey-text,
263,,,,,,,,,,"{""Q0"":""I learned that I can only move towards one end of the nodes, and that as soon as I find a 48 at the end of a node, I should head towards it.""}",,35058,,,,394127,,,,survey-text,
263,,,,,,,,,,"{""Q0"":""23"",""Q1"":""male""}",,7321,,,,562890,,,,survey-text,
235,,,,,,,,,,"{""Q0"":""I will utilize the nodes more during the actual game itself.  I was going on instinct/chance and I shouldn't do that in every case.""}",,46926,,,,462441,,,,survey-text,
235,,,,,,,,,,"{""Q0"":""37"",""Q1"":""Male""}",,13885,,,,657428,,,,survey-text,
205,,,,,,,,,,"{""Q0"":""I have learned to check the outer nodes to compare the values, they are generally worth the most. ""}",,22637,,,,967812,,,,survey-text,
205,"[6178, 6905, 7649]","[u'right', u'right', u'down']",test,,[],,"[u'0', u'5', u'6', u'8']","{u'mouseover': {u'state': {u'target': [], u'time': []}, u'edge': {u'target': [], u'time': []}}, u'click': {u'state': {u'target': [u'11', u'12', u'9', u'10', u'4', u'3', u'7', u'8', u'6', u'5'], u'time': [440, 736, 1662, 1934, 2671, 3119, 3535, 3847, 4431, 4742]}, u'edge': {u'target': [], u'time': []}}, u'mouseout': {u'state': {u'target': [], u'time': []}, u'edge': {u'target': [], u'time': []}}}",,,"[-2, 4, 48]","[6175, 219, 228]",40.0,"[None, None, None]","[u'', 4, 8, -24, 24, -2, 4, -24, 48, 2, -8, 24, 48]",1155950,24.0,12356.0,8.866052500453722e+18,survey-text,
307,,,,,,,,,,"{""Q0"":""The net amount of revealing a node is higher than what ever I would spend to reveal it. So its more beneficial for me to reveal the majority of the nodes so I could get the most amount of money and it would overtake the price of how much it cost to reveal.""}",,100509,,,,648233,,,,survey-text,
307,,,,,,,,,,"{""Q0"":""18"",""Q1"":""Male""}",,15467,,,,912047,,,,survey-text,
46,,,,,,,,,,"{""Q0"":"" am choosing the farther ones first instead of the inside ones""}",,36298,,,,982066,,,,survey-text,
46,,,,,,,,,,"{""Q0"":""34"",""Q1"":""female""}",,7483,,,,1183598,,,,survey-text,
129,"[11793, 12649, 13523]","[u'left', u'left', u'up']",training,,[],,"[u'0', u'9', u'10', u'11']","{u'mouseover': {u'state': {u'target': [], u'time': []}, u'edge': {u'target': [], u'time': []}}, u'click': {u'state': {u'target': [u'4', u'3', u'7', u'8', u'11'], u'time': [2111, 3979, 5746, 7497, 10186]}, u'edge': {u'target': [], u'time': []}}, u'mouseout': {u'state': {u'target': [], u'time': []}, u'edge': {u'target': [], u'time': []}}}",,,"[-2, -4, 48]","[11761, 330, 328]",37.0,"[None, None, None]","[u'', -2, 4, -48, -24, 2, 4, 24, 24, -2, -4, 48, -24]",388114,9.0,34954.0,7.457324294976433e+18,survey-text,
129,,,,,,,,,,"{""Q0"":""47"",""Q1"":""male""}",,11669,,,,639854,,,,survey-text,
22,,,,,,,,,,"{""Q0"":"" I will click on the ends of the web, and when I see the $48, I will go to that node.""}",,45769,,,,489314,,,,survey-text,
22,,,,,,,,,,"{""Q0"":""22"",""Q1"":""Female""}",,7735,,,,683217,,,,survey-text,
323,,,,,,,,,,"{""Q0"":""I used a minimal amount of inspector to find out where the negative nodes were.""}",,28821,,,,490515,,,,survey-text,
323,,,,,,,,,,"{""Q0"":""31"",""Q1"":""Female""}",,8187,,,,719875,,,,survey-text,
66,,,,,,,,,,"{""Q0"":""It is best to click on all the nodes. I haven't figured out how to avoid delays. ""}",,18821,,,,620583,,,,survey-text,
261,,,,,,,,,,"{""Q0"":""Be cautious, don't assume you know where things are.""}",,18523,,,,496916,,,,survey-text,
261,,,,,,,,,,"{""Q0"":""22"",""Q1"":""Female""}",,8526,,,,708278,,,,survey-text,
239,,,,,,,,,,"{""Q0"":""Click on the last nodes to find the greatest reward amount.  ""}",,30072,,,,440009,,,,survey-text,
239,,,,,,,,,,"{""Q0"":""36"",""Q1"":""male""}",,9521,,,,679404,,,,survey-text,
338,,,,,,,,,,"{""Q0"":""How to play the game and not to waste money by clicking every circle""}",,27533,,,,539928,,,,survey-text,
338,,,,,,,,,,"{""Q0"":""32"",""Q1"":""female""}",,11243,,,,774236,,,,survey-text,
190,,,,,,,,,,"{""Q0"":""Honestly I never figured out the best way to succeed in this task. At the beginning I didn't want to click and spend a dollar each time. Closer to the end I realized if I did click then my delay was shorter than if I just instantly moved the arrows. I should have realized it way earlier than I did. ""}",,200104,,,,1121087,,,,survey-text,
190,,,,,,,,,,"{""Q0"":""48"",""Q1"":""Female""}",,13683,,,,1412355,,,,survey-text,
173,,,,,,,,,,"{""Q0"":""I learned paying to know the best path will earn you the most. I would have paid for the right path every time\n""}",,30137,,,,1262705,,,,survey-text,
173,,,,,,,,,,"{""Q0"":""28"",""Q1"":""male""}",,11678,,,,1629761,,,,survey-text,
193,,,,,,,,,,"{""Q0"":""The larger numbers are at the ends of the paths.  The first two hops don't matter that much.  I would check just the ends initially and then check the second to last hop if there were more than one end point that was +48""}",,49125,,,,644976,,,,survey-text,
193,,,,,,,,,,"{""Q0"":""35"",""Q1"":""Female""}",,7626,,,,855008,,,,survey-text,
242,,,,,,,,,,"{""Q0"":""Once I see the last node being worth $48, I can automatically make moves towards it. If all the last node have the same absolute value, then I can reveal the intermediary nodes in order to find best path.""}",,94779,,,,631959,,,,survey-text,
242,,,,,,,,,,"{""Q0"":""35"",""Q1"":""Male""}",,11235,,,,815848,,,,survey-text,
262,,,,,,,,,,"{""Q0"":""I want to click on the ends first. Once I find the 48, I can stop clicking and head there. It seems like the largest awards and biggest penalties are on the end.""}",,78125,,,,558564,,,,survey-text,
262,,,,,,,,,,"{""Q0"":""31"",""Q1"":""Male""}",,10679,,,,795590,,,,survey-text,
304,,,,,,,,,,"{""Q0"":""It is best to click all the outside boxes until a +48 appears since you are only spending $1 each time.""}",,84797,,,,566453,,,,survey-text,
304,,,,,,,,,,"{""Q0"":""49"",""Q1"":""Male""}",,9876,,,,774027,,,,survey-text,
97,,,,,,,,,,"{""Q0"":""""}",,10395,,,,924586,,,,survey-text,
97,,,,,,,,,,"{""Q0"":""50"",""Q1"":""male""}",,8901,,,,1095733,,,,survey-text,
85,,,,,,,,,,"{""Q0"":""going with the first green high amount""}",,25504,,,,537831,,,,survey-text,
85,,,,,,,,,,"{""Q0"":""46"",""Q1"":""female""}",,10772,,,,748687,,,,survey-text,
291,,,,,,,,,,"{""Q0"":""I somewhat learned which corners produced and what order to check them in to avoid spending money.""}",,35270,,,,448613,,,,survey-text,
291,,,,,,,,,,"{""Q0"":""47"",""Q1"":""male""}",,8773,,,,672214,,,,survey-text,
280,,,,,,,,,,"{""Q0"":""I'm actually using the preview node more often and I'm getting worse results, and not mixing up the paths as much. ""}",,42992,,,,803068,,,,survey-text,
280,,,,,,,,,,"{""Q0"":""34"",""Q1"":""female""}",,10619,,,,1002924,,,,survey-text,
316,,,,,,,,,,"{""Q0"":""I just went for the best of the first three choices I clicked on.""}",,33790,,,,903553,,,,survey-text,
316,,,,,,,,,,"{""Q0"":""87"",""Q1"":""female""}",,14807,,,,1193745,,,,survey-text,
31,,,,,,,,,,"{""Q0"":""I learned it was worth it to click on each node.""}",,40955,,,,1061529,,,,survey-text,
31,,,,,,,,,,"{""Q0"":""69"",""Q1"":""female""}",,9356,,,,1439981,,,,survey-text,
65,,,,,,,,,,"{""Q0"":""Picking the ending nodes as they are the most valuable and guarantee a positive gain if its 48.""}",,46167,,,,1058750,,,,survey-text,
65,,,,,,,,,,"{""Q0"":""36"",""Q1"":""Male""}",,9876,,,,1270046,,,,survey-text,
347,,,,,,,,,,"{""Q0"":""I learned that the destination was most important.""}",,31494,,,,521845,,,,survey-text,
347,,,,,,,,,,"{""Q0"":""29"",""Q1"":""Male""}",,19477,,,,786278,,,,survey-text,
58,,,,,,,,,,"{""Q0"":""I'm taking the time to expose more nodes because the time penalty is severe""}",,16538,,,,620981,,,,survey-text,
58,,,,,,,,,,"{""Q0"":""24"",""Q1"":""female""}",,4818,,,,810707,,,,survey-text,
9,"[8357, 50658, 52219]","[u'left', u'left', u'down']",training,,"[3, 40]",,"[u'0', u'9', u'10', u'12']","{u'mouseover': {u'state': {u'target': [], u'time': []}, u'edge': {u'target': [], u'time': []}}, u'click': {u'state': {u'target': [u'9'], u'time': [6820]}, u'edge': {u'target': [], u'time': []}}, u'mouseout': {u'state': {u'target': [], u'time': []}, u'edge': {u'target': [], u'time': []}}}",,,"[4, 8, 48]","[8339, 766, 1026]",59.0,"[None, None, None]","[u'', -2, -4, 48, -48, 2, 4, -48, 24, 4, 8, -48, 48]",909544,9.0,66686.0,-2.8170989986703314e+18,survey-text,
9,,,,,,,,,,"{""Q0"":""36"",""Q1"":""female""}",,11144,,,,1174886,,,,survey-text,
378,,,,,,,,,,"{""Q0"":""I am not sure what I learned, but it seems that clicking is beneficial in the beginning.""}",,71158,,,,630893,,,,survey-text,
378,,,,,,,,,,"{""Q0"":""55"",""Q1"":""Female""}",,10972,,,,885236,,,,survey-text,
251,,,,,,,,,,"{""Q0"":""I am taking the $1 penalty to check more nodes.""}",,21405,,,,1472888,,,,survey-text,
251,,,,,,,,,,"{""Q0"":""40"",""Q1"":""female""}",,25234,,,,1730730,,,,survey-text,
290,,,,,,,,,,"{""Q0"":""To stop and really look at the bigger picture before I make a move. I am more attentive to what I am doing now.""}",,38521,,,,498573,,,,survey-text,
290,,,,,,,,,,"{""Q0"":""48"",""Q1"":""Female""}",,14103,,,,727831,,,,survey-text,
462,,,,,,,,,,"{""Q0"":""I learned to check the values of the ending node instead of the node closest to the beginning. ""}",,31114,,,,888818,,,,survey-text,
462,,,,,,,,,,"{""Q0"":""25"",""Q1"":""Female""}",,23632,,,,1130981,,,,survey-text,
89,,,,,,,,,,"{""Q0"":""clicking the far nodes first to try to find 48 and then going to it""}",,28621,,,,485632,,,,survey-text,
89,,,,,,,,,,"{""Q0"":""35"",""Q1"":""male""}",,11275,,,,705637,,,,survey-text,
328,,,,,,,,,,"{""Q0"":""I don't know!""}",,49262,,,,1081762,,,,survey-text,
328,,,,,,,,,,"{""Q0"":""35"",""Q1"":""Female""}",,17209,,,,1428373,,,,survey-text,
145,,,,,,,,,,"{""Q0"":""I need to use the node before moving or I will not see the results.  Also, most larger results are on the corners.""}",,40138,,,,686893,,,,survey-text,
145,,,,,,,,,,"{""Q0"":""39"",""Q1"":""male""}",,10065,,,,895879,,,,survey-text,
334,,,,,,,,,,"{""Q0"":""At the beginning, I was revealing nodes closest to the starting position.\nThereafter, I began to reveal nodes corresponding to the final position to ascertain which destination points are more preferable. If two destination nodes provided for the same award, I began to reveal nodes closest to the destination to further ascertain which route would result in the highest payout.""}",,211311,,,,948759,,,,survey-text,
334,,,,,,,,,,"{""Q0"":""29"",""Q1"":""Male""}",,10159,,,,1177041,,,,survey-text,
436,,,,,,,,,,"{""Q0"":""I learned the best way is to look at the outer numbers first, then if there are two the same, click in""}",,14189,,,,709328,,,,survey-text,
436,,,,,,,,,,"{""Q0"":""30"",""Q1"":""female""}",,13880,,,,1251329,,,,survey-text,
164,,,,,,,,,,"{""Q0"":""I need to stop delaying ""}",,15731,,,,1902704,,,,survey-text,
164,,,,,,,,,,"{""Q0"":""22"",""Q1"":""male""}",,6333,,,,2130727,,,,survey-text,
207,,,,,,,,,,"{""Q0"":""I don't feel I have really learned anything.  This is a random exercise. ""}",,27624,,,,369388,,,,survey-text,
207,,,,,,,,,,"{""Q0"":""43"",""Q1"":""female""}",,9478,,,,589735,,,,survey-text,
252,,,,,,,,,,"{""Q0"":""Trying to not use as many $1 investigator look ups per round. Also trying to find the positive $48 space to land on.""}",,30542,,,,445988,,,,survey-text,
252,,,,,,,,,,"{""Q0"":""27"",""Q1"":""Female""}",,10208,,,,638046,,,,survey-text,
426,,,,,,,,,,"{""Q0"":""I learned that most of the times the higher amounts were on the right side of the screen. ""}",,58234,,,,701979,,,,survey-text,
426,,,,,,,,,,"{""Q0"":""34"",""Q1"":""female""}",,144364,,,,1118074,,,,survey-text,
375,,,,,,,,,,"{""Q0"":""I click the end nodes to reveal the amount. It is worth losing the $1 to find out because the reward is much more than I lose.""}",,35583,,,,519741,,,,survey-text,
375,,,,,,,,,,"{""Q0"":""36"",""Q1"":""female""}",,9350,,,,752012,,,,survey-text,
289,,,,,,,,,,"{""Q0"":""I learned that it is worth it to click on the nodes and pay the $1 so that I can maximize my earnings.""}",,35291,,,,995886,,,,survey-text,
289,,,,,,,,,,"{""Q0"":""54"",""Q1"":""female""}",,18152,,,,1316452,,,,survey-text,
21,,,,,,,,,,"{""Q0"":""I should have looked at the end nodes from the beginning""}",,24532,,,,739991,,,,survey-text,
21,,,,,,,,,,"{""Q0"":""49"",""Q1"":""female""}",,6805,,,,924495,,,,survey-text,
56,,,,,,,,,,"{""Q0"":""I have learned that each corner of the game contain either a negative amount or a positive amount. In order to know where to move the spider I need to find the positive amount on the corners.""}",,50345,,,,696166,,,,survey-text,
56,,,,,,,,,,"{""Q0"":""23"",""Q1"":""female""}",,20164,,,,933154,,,,survey-text,
243,,,,,,,,,,"{""Q0"":""not using the information for a chance to see amount on first option""}",,46203,,,,469259,,,,survey-text,
243,,,,,,,,,,"{""Q0"":""65"",""Q1"":""female""}",,11565,,,,655695,,,,survey-text,
364,,,,,,,,,,"{""Q0"":""I learned that the most efficient way to make more money was to check the final nodes, to see where I would end up- not check the ones near the starting point.""}",,86011,,,,817069,,,,survey-text,
364,,,,,,,,,,"{""Q0"":""35"",""Q1"":""female""}",,15423,,,,1060512,,,,survey-text,
288,,,,,,,,,,"{""Q0"":""Not to be afraid to use the inspector and to start on the outside and work in""}",,39629,,,,2186491,,,,survey-text,
288,,,,,,,,,,"{""Q0"":""27"",""Q1"":""Female""}",,11118,,,,2511145,,,,survey-text,
311,,,,,,,,,,"{""Q0"":""I concentrated on finding the 48 dollar node and going there without wasting dollars. ""}",,39061,,,,524457,,,,survey-text,
311,,,,,,,,,,"{""Q0"":""34"",""Q1"":""male""}",,38258,,,,734859,,,,survey-text,
278,,,,,,,,,,"{""Q0"":""I've learned to click the outer circles and once i see a positve $48, start moving to it.""}",,21848,,,,544717,,,,survey-text,
278,,,,,,,,,,"{""Q0"":""29"",""Q1"":""male""}",,4943,,,,725304,,,,survey-text,
313,,,,,,,,,,"{""Q0"":""1) Always click on end nodes until you see the highest value available.\n2)Don't bother to click on intermediate nodes - they don't gain or cost you a lot. 3) If you see the +48 node, move toward it immediately.""}",,95417,,,,582388,,,,survey-text,
313,,,,,,,,,,"{""Q0"":""60"",""Q1"":""Male""}",,11472,,,,886706,,,,survey-text,
399,,,,,,,,,,"{""Q0"":""I've learned that if you find a +48, it's probably worth just going there, and that the outer spaces have the higher values. The inner values generally won't make a difference if you have a larger positive value at the end so it's not worth checking nodes. I will just look at the ends now and figure out a path to the highest end node.""}",,82427,,,,640481,,,,survey-text,
399,,,,,,,,,,"{""Q0"":""29"",""Q1"":""Male""}",,8099,,,,826357,,,,survey-text,
67,,,,,,,,,,"{""Q0"":""I READY TO PLAY THE GAME ""}",,20772,,,,1178226,,,,survey-text,
67,,,,,,,,,,"{""Q0"":""29"",""Q1"":""MALE""}",,13590,,,,1666030,,,,survey-text,
113,,,,,,,,,,"{""Q0"":""I learned that the goal is to get to the end and that the highest points are at the end points.""}",,31017,,,,735925,,,,survey-text,
113,,,,,,,,,,"{""Q0"":""35"",""Q1"":""female""}",,13694,,,,978718,,,,survey-text,
136,,,,,,,,,,"{""Q0"":""I have learned that I have a better outcome if I get a look at what the circles are. I am trying to always get a hint.""}",,37361,,,,469520,,,,survey-text,
136,,,,,,,,,,"{""Q0"":""51"",""Q1"":""female""}",,7106,,,,679289,,,,survey-text,
279,,,,,,,,,,"{""Q0"":""Spending more money on the inspector (playing it safe) than just going for it and moving.""}",,40857,,,,704618,,,,survey-text,
279,,,,,,,,,,"{""Q0"":""28"",""Q1"":""Male""}",,12621,,,,915470,,,,survey-text,
376,,,,,,,,,,"{""Q0"":""I learned that the big dollar spots are on the outside, so don't waste picks on the first two spots.""}",,29081,,,,442344,,,,survey-text,
376,,,,,,,,,,"{""Q0"":""36"",""Q1"":""Male""}",,6953,,,,649396,,,,survey-text,
256,,,,,,,,,,"{""Q0"":""I played the game the same pretty much all ten times. ""}",,56921,,,,377105,,,,survey-text,
256,,,,,,,,,,"{""Q0"":""33"",""Q1"":""Male""}",,7273,,,,556768,,,,survey-text,
379,,,,,,,,,,"{""Q0"":""I'm not doing anything differently. Just using instinct!""}",,36564,,,,514008,,,,survey-text,
379,,,,,,,,,,"{""Q0"":""26"",""Q1"":""female""}",,23114,,,,903598,,,,survey-text,
223,,,,,,,,,,"{""Q0"":""Before I was trying random nodes or blindly moving. now, I have been checking the destination nodes until I find the 48. Then I travel to it.""}",,125843,,,,1520979,,,,survey-text,
223,,,,,,,,,,"{""Q0"":""52"",""Q1"":""Male""}",,16447,,,,1764828,,,,survey-text,
468,,,,,,,,,,"{""Q0"":""I start with the ends and look for the highest possible dollar amount and then I head in that direction. If there is a tie I work my way back to see if the next amount is better than the other direction.""}",,64171,,,,638927,,,,survey-text,
468,,,,,,,,,,"{""Q0"":""34"",""Q1"":""Male""}",,16365,,,,860399,,,,survey-text,
459,,,,,,,,,,"{""Q0"":""Only checking the end nodes for value""}",,28360,,,,509758,,,,survey-text,
459,,,,,,,,,,"{""Q0"":""26"",""Q1"":""male""}",,11198,,,,736875,,,,survey-text,
150,"[8864, 9713, 11040]","[u'left', u'left', u'up']",training,,"[2, 3, 0, 0]",,"[u'0', u'9', u'10', u'11']","{u'mouseover': {u'state': {u'target': [], u'time': []}, u'edge': {u'target': [], u'time': []}}, u'click': {u'state': {u'target': [u'10', u'9', u'11'], u'time': [2932, 5068, 6700]}, u'edge': {u'target': [], u'time': []}}, u'mouseout': {u'state': {u'target': [], u'time': []}, u'edge': {u'target': [], u'time': []}}}",,,"[4, 4, 48]","[8853, 342, 805]",53.0,"[None, None, None]","[u'', -4, -8, -48, -48, -4, -4, 48, 24, 4, 4, 48, -48]",1024752,9.0,40983.0,-9.063084800167139e+18,survey-text,
150,,,,,,,,,,"{""Q0"":""58"",""Q1"":""FEMALE""}",,19605,,,,1364415,,,,survey-text,
331,,,,,,,,,,"{""Q0"":""I learned to click on the nodes furthest from the start of the web first. Looking at the ultimate reward (the final node of the path) offers better planning than trying to take it one small step at a time. The ultimate reward is worth more than the nodes adjacent to the start of the web, so the route should be planned around the ultimate reward first.""}",,77465,,,,426897,,,,survey-text,
331,,,,,,,,,,"{""Q0"":""25"",""Q1"":""Male""}",,7806,,,,603566,,,,survey-text,
149,,,,,,,,,,"{""Q0"":""Clicking on the final node to see which is the largest.""}",,67513,,,,673992,,,,survey-text,
149,,,,,,,,,,"{""Q0"":""35"",""Q1"":""Male""}",,6803,,,,889531,,,,survey-text,
109,,,,,,,,,,"{""Q0"":""I learned it is better to spend $1 & click on the nodes""}",,27964,,,,642873,,,,survey-text,
109,,,,,,,,,,"{""Q0"":""38"",""Q1"":""female ""}",,21574,,,,849896,,,,survey-text,
198,,,,,,,,,,"{""Q0"":""persistence ""}",,24092,,,,692952,,,,survey-text,
198,,,,,,,,,,"{""Q0"":""37"",""Q1"":""FEMALE""}",,16467,,,,890669,,,,survey-text,
315,,,,,,,,,,"{""Q0"":""I've learned that this was an underpaid waste of my time. What I'm doing differently from when I started is regretting that I clicked Accept on this job.""}",,44883,,,,1089692,,,,survey-text,
315,,,,,,,,,,"{""Q0"":""44"",""Q1"":""male""}",,8541,,,,1299270,,,,survey-text,
181,,,,,,,,,,"{""Q0"":""Checking end values, game does not always respond to arrows.""}",,28267,,,,984877,,,,survey-text,
181,,,,,,,,,,"{""Q0"":""53"",""Q1"":""Female""}",,15411,,,,1301012,,,,survey-text,
0,,,,,,,,,,"{""Q0"":""Learned the last dot contained the large rewards so find those and head for them.""}",,51020,,,,642761,,,,survey-text,
0,,,,,,,,,,"{""Q0"":""59"",""Q1"":""Male""}",,13866,,,,998879,,,,survey-text,
12,,,,,,,,,,"{""Q0"":""not following the experts""}",,17997,,,,730766,,,,survey-text,
12,,,,,,,,,,"{""Q0"":""47"",""Q1"":""male""}",,17207,,,,928736,,,,survey-text,
39,,,,,,,,,,"{""Q0"":""No reasoning of which way to direct the spider. If I used the node inspector wasted a dollar, tried to just go with gut, turned out to be wrong  each time. Unable to determine first move without getting a time delay for wrong move.""}",,120117,,,,929312,,,,survey-text,
39,,,,,,,,,,"{""Q0"":""65"",""Q1"":""female""}",,13625,,,,1148879,,,,survey-text,
333,,,,,,,,,,"{""Q0"":""i needed to find the $48 spot before i moved""}",,38062,,,,1041035,,,,survey-text,
333,,,,,,,,,,"{""Q0"":""45"",""Q1"":""male""}",,10528,,,,1288527,,,,survey-text,
182,,,,,,,,,,"{""Q0"":""I learned to click on the last node of the path in each path first. If I reach a positive $48, then I should go straight to it. But if I don't see a $48, then I should keep checking the last available node. If numbers are tied, then I should check the other nodes in the path to compare before using the arrows. But what I don't understand is that it wont let me check to see if there are two $48 nodes, it wants me to go to the first available $48 node without checking the whole board. It is different than if there are two $24's on the board. ""}",,144469,,,,595235,,,,survey-text,
182,,,,,,,,,,"{""Q0"":""30"",""Q1"":""Female""}",,9885,,,,795589,,,,survey-text,
439,,,,,,,,,,"{""Q0"":""Clicking on the END end nodes is the way to go.""}",,28462,,,,967084,,,,survey-text,
439,,,,,,,,,,"{""Q0"":""58"",""Q1"":""Male""}",,16081,,,,1246455,,,,survey-text,
406,,,,,,,,,,"{""Q0"":""I have learned the best strategy is to reveal the value of the end nodes and go for it once you reveal one with the maximum available score.""}",,34109,,,,364837,,,,survey-text,
406,,,,,,,,,,"{""Q0"":""32"",""Q1"":""male""}",,12643,,,,585681,,,,survey-text,
240,,,,,,,,,,"{""Q0"":""once I get a green 48 I keep in that area of the web and double check the other two/three nodes.""}",,28229,,,,580654,,,,survey-text,
240,,,,,,,,,,"{""Q0"":""34"",""Q1"":""Female""}",,15063,,,,807396,,,,survey-text,
170,,,,,,,,,,"{""Q0"":""Click on the nodes at the end until I find the one with 48""}",,17676,,,,367039,,,,survey-text,
170,,,,,,,,,,"{""Q0"":""23"",""Q1"":""Male""}",,7770,,,,543110,,,,survey-text,
131,,,,,,,,,,"{""Q0"":""I was checking ahead and taking advantage of the ability to reveal the prices. At the beginning of the lesson I wasn't doing that.""}",,30558,,,,652674,,,,survey-text,
131,,,,,,,,,,"{""Q0"":""31"",""Q1"":""Male""}",,9420,,,,1271842,,,,survey-text,
446,,,,,,,,,,"{""Q0"":""I'm not click on every node from the start to the end I am choosing the end units to see which has the highest value and once I see 48 I stop and just head to that spot.""}",,56059,,,,525876,,,,survey-text,
446,,,,,,,,,,"{""Q0"":""43"",""Q1"":""Female""}",,12579,,,,733061,,,,survey-text,
294,,,,,,,,,,"{""Q0"":""I learned that the terminal nodes held the largest rewards/risks so I spent my dollars on them to find $24 or $48 spots. I stopped clicking the interior nodes after the first couple of rounds.""}",,80203,,,,505984,,,,survey-text,
294,,,,,,,,,,"{""Q0"":""30"",""Q1"":""Female""}",,19181,,,,709014,,,,survey-text,
114,,,,,,,,,,"{""Q0"":""I leaned that its worth the price to click and you can make more taking a path with negative amounts in first 2 nodes at times""}",,59015,,,,606189,,,,survey-text,
114,,,,,,,,,,"{""Q0"":""40"",""Q1"":""male""}",,7696,,,,898299,,,,survey-text,
395,,,,,,,,,,"{""Q0"":""There is need to click all the grey circles. Just follow the green positive trend and forget the rest.""}",,105631,,,,2025504,,,,survey-text,
395,,,,,,,,,,"{""Q0"":""37"",""Q1"":""Male""}",,14352,,,,2338364,,,,survey-text,
414,,,,,,,,,,"{""Q0"":""That you can start negative and still make more, that I can predict certain outcomes since the highest number is 48""}",,80282,,,,885107,,,,survey-text,
414,,,,,,,,,,"{""Q0"":""30"",""Q1"":""male""}",,9970,,,,1418865,,,,survey-text,
255,,,,,,,,,,"{""Q0"":""checking the furthest away nodes and finding the 48 for best results.""}",,34735,,,,790533,,,,survey-text,
255,,,,,,,,,,"{""Q0"":""29"",""Q1"":""female""}",,16155,,,,1010887,,,,survey-text,
325,,,,,,,,,,"{""Q0"":""I learned that the endpoints have the highest values and are most important. I also am trying to not have to spend as much revealing all of the endpoints, though it seems like it increases the likelihood of a mistake if I don't.""}",,110599,,,,430407,,,,survey-text,
325,,,,,,,,,,"{""Q0"":""26"",""Q1"":""male""}",,6723,,,,616814,,,,survey-text,
40,"[12009, 12653, 13793]","[u'left', u'left', u'down']",training,,"[0, 0, 0, 0, 0, 0, 0]",,"[u'0', u'9', u'10', u'12']","{u'mouseover': {u'state': {u'target': [], u'time': []}, u'edge': {u'target': [], u'time': []}}, u'click': {u'state': {u'target': [u'3', u'4', u'11', u'12', u'7', u'8'], u'time': [1922, 3569, 5271, 6997, 8709, 10247]}, u'edge': {u'target': [], u'time': []}}, u'mouseout': {u'state': {u'target': [], u'time': []}, u'edge': {u'target': [], u'time': []}}}",,,"[2, 4, 24]","[12007, 124, 628]",24.0,"[None, None, None]","[u'', -2, -4, -48, -48, 2, -8, -24, -24, 2, 4, 24, 24]",497980,9.0,25057.0,-7.656966127788695e+18,survey-text,
40,,,,,,,,,,"{""Q0"":""28"",""Q1"":""Male""}",,10455,,,,710641,,,,survey-text,
356,,,,,,,,,,"{""Q0"":""Once the expert finds a node with $48, they do not usually search further since $48 is the maximum possible. If there are other $48 nodes, the $1 cost for info is not worth it.\nIf two paths have equal outcomes at the ultimate endpoints, the experts is willing to pay $1 to find out more about the intervening nodes. It is worth a dollar to minimize the path to the identical end points.""}",,110475,,,,797639,,,,survey-text,
356,,,,,,,,,,"{""Q0"":""30"",""Q1"":""female""}",,8287,,,,1013914,,,,survey-text,
110,,,,,,,,,,"{""Q0"":""best to check the end bubble first to know which one should be investigated further""}",,36479,,,,633601,,,,survey-text,
110,,,,,,,,,,"{""Q0"":""49"",""Q1"":""Female""}",,10249,,,,886176,,,,survey-text,
94,,,,,,,,,,"{""Q0"":""I learned to click on the most external nodes first, until I hit a green 48.  If I find multiple green 24s I then need to click on the middle node by each 24.""}",,64904,,,,605030,,,,survey-text,
94,,,,,,,,,,"{""Q0"":""30"",""Q1"":""female""}",,15059,,,,830942,,,,survey-text,
247,,,,,,,,,,"{""Q0"":""went up one time and down the next""}",,15944,,,,469116,,,,survey-text,
247,,,,,,,,,,"{""Q0"":""37"",""Q1"":""female""}",,9380,,,,666788,,,,survey-text,
353,,,,,,,,,,"{""Q0"":""I am looking at the end points and trying to find the $48 node.""}",,29307,,,,408634,,,,survey-text,
353,,,,,,,,,,"{""Q0"":""48"",""Q1"":""male""}",,22703,,,,625184,,,,survey-text,
1,,,,,,,,,,"{""Q0"":""check the extremities and when you find one at 48 go for it""}",,29197,,,,421703,,,,survey-text,
1,,,,,,,,,,"{""Q0"":""57"",""Q1"":""female""}",,10250,,,,640863,,,,survey-text,
137,,,,,,,,,,"{""Q0"":""I try to go the opposite direction of the negative dollars. Going up and down doesn't have any impact on the dollar amount, it really is very random in my mind.""}",,49133,,,,645947,,,,survey-text,
137,,,,,,,,,,"{""Q0"":""45"",""Q1"":""female""}",,12459,,,,848970,,,,survey-text,
194,,,,,,,,,,"{""Q0"":""I learned that even if I hit a key right away, it's not fast enough. Also that I will not be getting the bonus I imagined.""}",,48973,,,,1037381,,,,survey-text,
194,,,,,,,,,,"{""Q0"":"""",""Q1"":""female""}",,5704,,,,1222006,,,,survey-text,
6,,,,,,,,,,"{""Q0"":""At first I was inspecting nodes sequentially but I quickly learned that it was smarter to search only the last nodes for 48's.""}",,104985,,,,870442,,,,survey-text,
6,,,,,,,,,,"{""Q0"":""28"",""Q1"":""Male""}",,12958,,,,1074657,,,,survey-text,
102,,,,,,,,,,"{""Q0"":""I have learned that the game is very random. You win some, and lose some""}",,39092,,,,787423,,,,survey-text,
102,,,,,,,,,,"{""Q0"":""40"",""Q1"":""female""}",,8507,,,,975185,,,,survey-text,
466,,,,,,,,,,"{""Q0"":""I learned to start finding nodes at the end and to find the biggest payoff""}",,28984,,,,452588,,,,survey-text,
466,,,,,,,,,,"{""Q0"":""37"",""Q1"":""Female""}",,6300,,,,626664,,,,survey-text,
237,,,,,,,,,,"{""Q0"":""Trying to find the 48 dollar node and going toward it is the best bet""}",,23197,,,,500946,,,,survey-text,
237,,,,,,,,,,"{""Q0"":""35"",""Q1"":""Male""}",,9564,,,,682220,,,,survey-text,
273,,,,,,,,,,"{""Q0"":""i should listen more to the experts""}",,10026,,,,382100,,,,survey-text,
273,,,,,,,,,,"{""Q0"":""25"",""Q1"":""female""}",,5214,,,,562797,,,,survey-text,
438,"[2763, 50646, 51677]","[u'right', u'right', u'down']",training,,[42],,"[u'0', u'5', u'6', u'8']","{u'mouseover': {u'state': {u'target': [], u'time': []}, u'edge': {u'target': [], u'time': []}}, u'click': {u'state': {u'target': [], u'time': []}, u'edge': {u'target': [], u'time': []}}, u'mouseout': {u'state': {u'target': [], u'time': []}, u'edge': {u'target': [], u'time': []}}}",,,"[-4, 8, 48]","[2752, 4369, 507]",52.0,"[None, None, None]","[u'', -4, 8, -24, -48, -4, 8, -48, 48, 4, -8, -24, 48]",839464,9.0,62156.0,-1.4148451789680307e+18,survey-text,
438,,,,,,,,,,"{""Q0"":""29"",""Q1"":""ftM""}",,8097,,,,1015926,,,,survey-text,
68,,,,,,,,,,"{""Q0"":""Im alternating my moves""}",,14699,,,,477739,,,,survey-text,
68,,,,,,,,,,"{""Q0"":""37"",""Q1"":""male""}",,11004,,,,788239,,,,survey-text,
453,,,,,,,,,,"{""Q0"":""That there should be only one 48 and once I find it I should go straight for it.""}",,23498,,,,310563,,,,survey-text,
453,,,,,,,,,,"{""Q0"":""28"",""Q1"":""Male""}",,7542,,,,512506,,,,survey-text,
421,,,,,,,,,,"{""Q0"":""I learned that it was advantageous to click the ending node to see where I should go. ""}",,20745,,,,389014,,,,survey-text,
421,,,,,,,,,,"{""Q0"":""38"",""Q1"":""female""}",,6977,,,,564121,,,,survey-text,
282,,,,,,,,,,"{""Q0"":""I click one node every single time and make my moves depending on what the node value is.""}",,42606,,,,664818,,,,survey-text,
282,,,,,,,,,,"{""Q0"":""37"",""Q1"":""male""}",,8604,,,,1008174,,,,survey-text,
357,,,,,,,,,,"{""Q0"":""I would use the money to find out the best path.""}",,26261,,,,1184908,,,,survey-text,
357,,,,,,,,,,"{""Q0"":""42"",""Q1"":""Male""}",,8719,,,,1427811,,,,survey-text,
271,,,,,,,,,,"{""Q0"":""just looking for the highest payout at the end""}",,15851,,,,603245,,,,survey-text,
271,,,,,,,,,,"{""Q0"":""51"",""Q1"":""male""}",,8054,,,,822876,,,,survey-text,
283,,,,,,,,,,"{""Q0"":""ita all luck and chance ""}",,65499,,,,1472640,,,,survey-text,
283,,,,,,,,,,"{""Q0"":""29"",""Q1"":""Male""}",,15067,,,,2016334,,,,survey-text,
268,,,,,,,,,,"{""Q0"":""Nothing. The money changes every time. It is luck. No matter where I go, the results are different.""}",,33246,,,,578351,,,,survey-text,
268,,,,,,,,,,"{""Q0"":""25"",""Q1"":"" male""}",,7521,,,,789117,,,,survey-text,
143,,,,,,,,,,"{""Q0"":""I used a $1 to see what my options were. ""}",,31669,,,,962528,,,,survey-text,
143,,,,,,,,,,"{""Q0"":""43"",""Q1"":""female""}",,10221,,,,1149502,,,,survey-text,
366,,,,,,,,,,"{""Q0"":""I learned that the last nodes at the end of each path have the most deficit or gain. I'm starting to prioritize the revealing of those nodes to guide my decisions.""}",,64857,,,,440491,,,,survey-text,
366,,,,,,,,,,"{""Q0"":""21"",""Q1"":""male""}",,6435,,,,633122,,,,survey-text,
428,,,,,,,,,,"{""Q0"":""I did not use the check to see how much the nodes were worth""}",,24823,,,,352767,,,,survey-text,
428,,,,,,,,,,"{""Q0"":""50"",""Q1"":""female""}",,9969,,,,555720,,,,survey-text,
418,,,,,,,,,,"{""Q0"":""I was focusing more on the outer nodes to find the highest value.""}",,40890,,,,666434,,,,survey-text,
418,,,,,,,,,,"{""Q0"":""28"",""Q1"":""Male""}",,10861,,,,868633,,,,survey-text,
460,,,,,,,,,,"{""Q0"":""i learned that the outer nodes you click first until you find the highest amount and then you move towards that node""}",,45634,,,,565504,,,,survey-text,
460,,,,,,,,,,"{""Q0"":""23"",""Q1"":""male""}",,13586,,,,769650,,,,survey-text,
385,,,,,,,,,,"{""Q0"":""At the beginning, I clicked on all the nodes. But the $48 nodes are at the far ends, and they're the ones I want to find, so now I'm only clicking on the far ends. It just about doesn't matter what's in the middle.""}",,71332,,,,724682,,,,survey-text,
385,,,,,,,,,,"{""Q0"":""60"",""Q1"":""female""}",,12752,,,,947959,,,,survey-text,
72,,,,,,,,,,"{""Q0"":""I learned that clicking the corner values is an efficient way to make money.""}",,70937,,,,420927,,,,survey-text,
72,,,,,,,,,,"{""Q0"":""34"",""Q1"":""Female""}",,8478,,,,636484,,,,survey-text,
