wid,trial_type,rt,time_elapsed,view_history,questions,correct,responses,stimulus,button_pressed,action_times,trial_index,state_rewards,trial_time,delays,queries,simulation_mode,rewards,block,trial_id,score,prs,path,actions
w1f00ab2,survey-text,10533,539151,,,,"{""Q0"":""25"",""Q1"":""Female""}",,,,,,,,,,,,,,,,
w5446a8b,survey-text,4522,540723,,,,"{""Q0"":""41"",""Q1"":""Male""}",,,,,,,,,,,,,,,,
wa92380a,survey-text,7704,553418,,,,"{""Q0"":""29"",""Q1"":""Female""}",,,,,,,,,,,,,,,,
wd882f1d,survey-text,12524,1022189,,,,"{""Q0"":""30"",""Q1"":""Female""}",,,,,,,,,,,,,,,,
wc40aabb,survey-text,12406,643094,,,,"{""Q0"":""66"",""Q1"":""Male""}",,,,,,,,,,,,,,,,
w7a43c66,survey-text,6572,795522,,,,"{""Q0"":""35"",""Q1"":""male""}",,,,,,,,,,,,,,,,
w0b2bec7,survey-text,8079,623568,,,,"{""Q0"":""29"",""Q1"":""Male""}",,,,,,,,,,,,,,,,
w9798c52,survey-text,11245,939291,,,,"{""Q0"":""48"",""Q1"":""female""}",,,,,,,,,,,,,,,,
w68e5c90,survey-text,9551,1052196,,,,"{""Q0"":""30"",""Q1"":""FEMALE""}",,,,,,,,,,,,,,,,
w96741ec,survey-text,12384,893194,,,,"{""Q0"":""56"",""Q1"":""male""}",,,,,,,,,,,,,,,,
w1ac7f8d,survey-text,7481,470246,,,,"{""Q0"":""45"",""Q1"":""Male""}",,,,,,,,,,,,,,,,
w92ee735,survey-text,10277,920941,,,,"{""Q0"":""40"",""Q1"":""female""}",,,,,,,,,,,,,,,,
w886e1a5,survey-text,6213,771046,,,,"{""Q0"":""32"",""Q1"":""F""}",,,,,,,,,,,,,,,,
w299302c,survey-text,7218,525384,,,,"{""Q0"":""29"",""Q1"":""female""}",,,,,,,,,,,,,,,,
w16e71db,survey-text,10170,646471,,,,"{""Q0"":""19"",""Q1"":""Male""}",,,,,,,,,,,,,,,,
w7f7b23f,survey-text,6127,544344,,,,"{""Q0"":""30"",""Q1"":""female""}",,,,,,,,,,,,,,,,
wb41a890,survey-text,83624,1813867,,,,"{""Q0"":""37"",""Q1"":""Male""}",,,,,,,,,,,,,,,,
w09367fb,survey-text,10883,925291,,,,"{""Q0"":""33"",""Q1"":""Male""}",,,,,,,,,,,,,,,,
wd2eb46f,survey-text,12293,885042,,,,"{""Q0"":""55"",""Q1"":""female""}",,,,,,,,,,,,,,,,
w96e028d,survey-text,7387,1105845,,,,"{""Q0"":""28"",""Q1"":""female""}",,,,,,,,,,,,,,,,
we53a59d,survey-text,15154,883759,,,,"{""Q0"":""32"",""Q1"":""Female""}",,,,,,,,,,,,,,,,
wfcf1a45,survey-text,6687,595609,,,,"{""Q0"":""35"",""Q1"":""Female""}",,,,,,,,,,,,,,,,
wd4ae5d4,survey-text,4159,528184,,,,"{""Q0"":""36"",""Q1"":""Female""}",,,,,,,,,,,,,,,,
w61db4a8,survey-text,5247,599237,,,,"{""Q0"":""20"",""Q1"":""Male""}",,,,,,,,,,,,,,,,
w7194877,survey-text,10494,610292,,,,"{""Q0"":""61"",""Q1"":""woman""}",,,,,,,,,,,,,,,,
wc1ee984,survey-text,7180,784006,,,,"{""Q0"":""35"",""Q1"":""male""}",,,,,,,,,,,,,,,,
w65dbb51,survey-text,9006,899373,,,,"{""Q0"":""20"",""Q1"":""Female""}",,,,,,,,,,,,,,,,
wf966d1f,survey-text,12017,870121,,,,"{""Q0"":""35"",""Q1"":""Female""}",,,,,,,,,,,,,,,,
w2ded1c1,survey-text,23298,1284566,,,,"{""Q0"":""57"",""Q1"":""female""}",,,,,,,,,,,,,,,,
w5e8957b,survey-text,10004,1001982,,,,"{""Q0"":""33"",""Q1"":""Male""}",,,,,,,,,,,,,,,,
wa6c2fc2,survey-text,9431,709714,,,,"{""Q0"":""40"",""Q1"":""Male""}",,,,,,,,,,,,,,,,
w89fd051,survey-text,25786,956917,,,,"{""Q0"":""60"",""Q1"":""female""}",,,,,,,,,,,,,,,,
w76dc24c,survey-text,5840,691223,,,,"{""Q0"":""21"",""Q1"":""female""}",,,,,,,,,,,,,,,,
w0379fb0,survey-text,8354,715595,,,,"{""Q0"":""27"",""Q1"":""Female/woman""}",,,,,,,,,,,,,,,,
w1f3b2cc,survey-text,11886,904904,,,,"{""Q0"":""24"",""Q1"":""female""}",,,,,,,,,,,,,,,,
wdc799a6,survey-text,20670,672306,,,,"{""Q0"":""34"",""Q1"":""female""}",,,,,,,,,,,,,,,,
wf66fa67,survey-text,14366,923005,,,,"{""Q0"":""51"",""Q1"":""Male""}",,,,,,,,,,,,,,,,
w7d37077,survey-text,11691,627233,,,,"{""Q0"":""18"",""Q1"":""Female""}",,,,,,,,,,,,,,,,
w50da21f,survey-text,7201,955836,,,,"{""Q0"":""21"",""Q1"":""female""}",,,,,,,,,,,,,,,,
w9ab0dc2,survey-text,12172,724628,,,,"{""Q0"":""33"",""Q1"":""female""}",,,,,,,,,,,,,,,,
we4ebd33,survey-text,8411,839086,,,,"{""Q0"":""32"",""Q1"":""Female""}",,,,,,,,,,,,,,,,
w4a3c117,survey-text,21130,1617502,,,,"{""Q0"":""54"",""Q1"":""Female""}",,,,,,,,,,,,,,,,
wce38384,survey-text,11434,820850,,,,"{""Q0"":""31"",""Q1"":""Male""}",,,,,,,,,,,,,,,,
wcea0ab4,survey-text,7752,635027,,,,"{""Q0"":""21"",""Q1"":""Male""}",,,,,,,,,,,,,,,,
wcf77647,survey-text,6097,762908,,,,"{""Q0"":""23"",""Q1"":""woman""}",,,,,,,,,,,,,,,,
wea86a17,survey-text,5726,695234,,,,"{""Q0"":""27"",""Q1"":""Female""}",,,,,,,,,,,,,,,,
w1d6de38,survey-text,11248,3170704,,,,"{""Q0"":""61"",""Q1"":""Female""}",,,,,,,,,,,,,,,,
w97f0f44,survey-text,7852,877763,,,,"{""Q0"":""19"",""Q1"":""male""}",,,,,,,,,,,,,,,,
w8f13279,survey-text,7428,467705,,,,"{""Q0"":""35"",""Q1"":""Male""}",,,,,,,,,,,,,,,,
wefa7690,survey-text,15377,895931,,,,"{""Q0"":""56"",""Q1"":""Female""}",,,,,,,,,,,,,,,,
wc94919e,survey-text,11705,780502,,,,"{""Q0"":""28"",""Q1"":""female""}",,,,,,,,,,,,,,,,
wa6d46b0,survey-text,9544,644478,,,,"{""Q0"":""24"",""Q1"":""Male""}",,,,,,,,,,,,,,,,
wac36cb6,survey-text,5598,585216,,,,"{""Q0"":""20"",""Q1"":""Female""}",,,,,,,,,,,,,,,,
wffbf4bc,survey-text,20261,1860477,,,,"{""Q0"":""48"",""Q1"":""Female""}",,,,,,,,,,,,,,,,
wb73df1d,survey-text,22327,603301,,,,"{""Q0"":""47"",""Q1"":""female""}",,,,,,,,,,,,,,,,
w5cc6cec,survey-text,7773,700428,,,,"{""Q0"":""24"",""Q1"":""female""}",,,,,,,,,,,,,,,,
w2d56206,survey-text,31738,2463732,,,,"{""Q0"":""45"",""Q1"":""Male""}",,,,,,,,,,,,,,,,
w4dfb95f,survey-text,8536,693265,,,,"{""Q0"":""23"",""Q1"":""Female""}",,,,,,,,,,,,,,,,
wf90c06d,survey-text,15998,893800,,,,"{""Q0"":""19"",""Q1"":""non-binary""}",,,,,,,,,,,,,,,,
w57a3393,survey-text,6612,855658,,,,"{""Q0"":""28"",""Q1"":""Male""}",,,,,,,,,,,,,,,,
w3b6e27c,survey-text,6676,829742,,,,"{""Q0"":""21"",""Q1"":""Male""}",,,,,,,,,,,,,,,,
wbcb6a95,survey-text,8762,868503,,,,"{""Q0"":""31"",""Q1"":""FEMALE""}",,,,,,,,,,,,,,,,
w674e4fa,survey-text,12062,705451,,,,"{""Q0"":""43"",""Q1"":""Female""}",,,,,,,,,,,,,,,,
w731e942,survey-text,6848,758710,,,,"{""Q0"":""25"",""Q1"":""Female""}",,,,,,,,,,,,,,,,
wc8d3c4d,survey-text,17352,856212,,,,"{""Q0"":""35"",""Q1"":""male""}",,,,,,,,,,,,,,,,
w933c4d4,survey-text,9014,631304,,,,"{""Q0"":""45"",""Q1"":""male""}",,,,,,,,,,,,,,,,
we95a1dd,survey-text,5702,1993217,,,,"{""Q0"":""20"",""Q1"":""Male""}",,,,,,,,,,,,,,,,
w8afe608,survey-text,41762,1138516,,,,"{""Q0"":""48"",""Q1"":""men""}",,,,,,,,,,,,,,,,
w37336ea,survey-text,6801,800779,,,,"{""Q0"":""26"",""Q1"":""M""}",,,,,,,,,,,,,,,,
wa4fbbe6,survey-text,6744,1036718,,,,"{""Q0"":""33"",""Q1"":""male""}",,,,,,,,,,,,,,,,
wa5b56a0,survey-text,8066,902113,,,,"{""Q0"":""61"",""Q1"":""male""}",,,,,,,,,,,,,,,,
wd1f9fe7,survey-text,15357,1042956,,,,"{""Q0"":""31"",""Q1"":""Male""}",,,,,,,,,,,,,,,,
wa23dff7,survey-text,9479,1090967,,,,"{""Q0"":""30"",""Q1"":""Male""}",,,,,,,,,,,,,,,,
w636ddc0,survey-text,11761,673448,,,,"{""Q0"":""25"",""Q1"":""Female""}",,,,,,,,,,,,,,,,
w9f5501b,survey-text,9006,578006,,,,"{""Q0"":""30"",""Q1"":""Male""}",,,,,,,,,,,,,,,,
w2a519fc,survey-text,12255,607662,,,,"{""Q0"":""34"",""Q1"":""Male""}",,,,,,,,,,,,,,,,
wb8de019,survey-text,11187,974426,,,,"{""Q0"":""23"",""Q1"":""non-binary""}",,,,,,,,,,,,,,,,
wc28c2ab,survey-text,5196,573208,,,,"{""Q0"":""33"",""Q1"":""f""}",,,,,,,,,,,,,,,,
wb60c517,survey-text,9948,1261930,,,,"{""Q0"":""33"",""Q1"":""female""}",,,,,,,,,,,,,,,,
wc609fcf,survey-text,14549,849690,,,,"{""Q0"":""35"",""Q1"":""Male""}",,,,,,,,,,,,,,,,
we506445,survey-text,8947,833408,,,,"{""Q0"":""28"",""Q1"":""Female""}",,,,,,,,,,,,,,,,
w4c941ca,survey-text,5800,941776,,,,"{""Q0"":""20"",""Q1"":""Female""}",,,,,,,,,,,,,,,,
w15a8549,survey-text,7629,545209,,,,"{""Q0"":""35"",""Q1"":""female""}",,,,,,,,,,,,,,,,
wac9d553,survey-text,19889,1622899,,,,"{""Q0"":""27"",""Q1"":""Female""}",,,,,,,,,,,,,,,,
wcc74651,survey-text,10922,643995,,,,"{""Q0"":""24"",""Q1"":""male""}",,,,,,,,,,,,,,,,
w6fe3529,survey-text,10175,912538,,,,"{""Q0"":""38"",""Q1"":""Male""}",,,,,,,,,,,,,,,,
w197786e,survey-text,5752,527601,,,,"{""Q0"":""33"",""Q1"":""Male""}",,,,,,,,,,,,,,,,
w157b3f1,survey-text,9693,1077969,,,,"{""Q0"":""22"",""Q1"":""Female""}",,,,,,,,,,,,,,,,
w3aaffdc,survey-text,8928,1031811,,,,"{""Q0"":""44"",""Q1"":""Male""}",,,,,,,,,,,,,,,,
wa54e87c,survey-text,11337,722116,,,,"{""Q0"":""19"",""Q1"":""Man""}",,,,,,,,,,,,,,,,
wab267b0,survey-text,5818,1538968,,,,"{""Q0"":""20"",""Q1"":""Male""}",,,,,,,,,,,,,,,,
we4dcf9f,survey-text,12951,750499,,,,"{""Q0"":""33"",""Q1"":""Male""}",,,,,,,,,,,,,,,,
w8556b37,survey-text,7119,918789,,,,"{""Q0"":""31"",""Q1"":""female""}",,,,,,,,,,,,,,,,
w7b03e6e,survey-text,10952,787415,,,,"{""Q0"":""27"",""Q1"":""Female""}",,,,,,,,,,,,,,,,
w62e74fb,survey-text,10388,830178,,,,"{""Q0"":""35"",""Q1"":""female""}",,,,,,,,,,,,,,,,
w7c47769,survey-text,11326,830301,,,,"{""Q0"":""26"",""Q1"":""female""}",,,,,,,,,,,,,,,,
wb86496e,survey-text,6024,734294,,,,"{""Q0"":""19"",""Q1"":""Male""}",,,,,,,,,,,,,,,,
wdcc566c,survey-text,8589,762291,,,,"{""Q0"":""46"",""Q1"":""male""}",,,,,,,,,,,,,,,,
w3913f64,survey-text,10282,890741,,,,"{""Q0"":""25"",""Q1"":""Male""}",,,,,,,,,,,,,,,,
w8a5bf7c,survey-text,14994,563098,,,,"{""Q0"":""18"",""Q1"":""Female""}",,,,,,,,,,,,,,,,
w0a304c7,survey-text,9784,988092,,,,"{""Q0"":""45"",""Q1"":""Female""}",,,,,,,,,,,,,,,,
wdf5d6ce,survey-text,7969,644563,,,,"{""Q0"":""24"",""Q1"":""Male""}",,,,,,,,,,,,,,,,
w2da5e2e,survey-text,15815,1112722,,,,"{""Q0"":""19"",""Q1"":""female""}",,,,,,,,,,,,,,,,
w1afad0f,survey-text,11121,840570,,,,"{""Q0"":""30"",""Q1"":""female""}",,,,,,,,,,,,,,,,
wc37aad7,survey-text,11840,894552,,,,"{""Q0"":""52"",""Q1"":""male""}",,,,,,,,,,,,,,,,
w78a6f1b,survey-text,12162,1023206,,,,"{""Q0"":""23"",""Q1"":""Male""}",,,,,,,,,,,,,,,,
w22e3f70,survey-text,6394,1345514,,,,"{""Q0"":""21"",""Q1"":""Female""}",,,,,,,,,,,,,,,,
w2281b1f,survey-text,6227,587830,,,,"{""Q0"":""28"",""Q1"":""Male""}",,,,,,,,,,,,,,,,
w91695e7,survey-text,9097,655991,,,,"{""Q0"":""42"",""Q1"":""Female""}",,,,,,,,,,,,,,,,
w3005d69,survey-text,6843,720133,,,,"{""Q0"":""40"",""Q1"":""Female""}",,,,,,,,,,,,,,,,
wd5b046c,survey-text,5629,685069,,,,"{""Q0"":""37"",""Q1"":""m""}",,,,,,,,,,,,,,,,
w0200bf7,survey-text,15484,670477,,,,"{""Q0"":""38"",""Q1"":""male""}",,,,,,,,,,,,,,,,
w03c7513,survey-text,8741,778863,,,,"{""Q0"":""30"",""Q1"":""woman""}",,,,,,,,,,,,,,,,
wde06356,survey-text,11519,925023,,,,"{""Q0"":""43"",""Q1"":""male""}",,,,,,,,,,,,,,,,
w9515764,survey-text,6752,901130,,,,"{""Q0"":""22"",""Q1"":""female""}",,,,,,,,,,,,,,,,
wd323310,survey-text,10760,1014698,,,,"{""Q0"":""53"",""Q1"":""female""}",,,,,,,,,,,,,,,,
w7dd5ede,survey-text,15626,794866,,,,"{""Q0"":""35"",""Q1"":""female""}",,,,,,,,,,,,,,,,
wa172eb8,survey-text,8699,838930,,,,"{""Q0"":""27"",""Q1"":""Female""}",,,,,,,,,,,,,,,,
wad9ade5,survey-text,10195,1891820,,,,"{""Q0"":""50"",""Q1"":""Female""}",,,,,,,,,,,,,,,,
w8d67087,survey-text,19773,614725,,,,"{""Q0"":""20"",""Q1"":""male""}",,,,,,,,,,,,,,,,
w39a170d,survey-text,5244,788195,,,,"{""Q0"":""24"",""Q1"":""Female\n""}",,,,,,,,,,,,,,,,
w312ae57,survey-text,8760,682033,,,,"{""Q0"":""23"",""Q1"":""Female""}",,,,,,,,,,,,,,,,
w6e73762,survey-text,5362,607668,,,,"{""Q0"":""36"",""Q1"":""male""}",,,,,,,,,,,,,,,,
w985b9d0,survey-text,7620,648796,,,,"{""Q0"":""37"",""Q1"":""female""}",,,,,,,,,,,,,,,,
w8742c0b,survey-text,6592,802580,,,,"{""Q0"":""24"",""Q1"":""Male""}",,,,,,,,,,,,,,,,
w2b70bff,survey-text,8458,935724,,,,"{""Q0"":""30"",""Q1"":""Male""}",,,,,,,,,,,,,,,,
wbd3f15f,survey-text,6103,445563,,,,"{""Q0"":""19"",""Q1"":""Female""}",,,,,,,,,,,,,,,,
w4df881a,survey-text,6427,1493016,,,,"{""Q0"":""25"",""Q1"":""Male""}",,,,,,,,,,,,,,,,
w5c59817,survey-text,5643,566838,,,,"{""Q0"":""25"",""Q1"":""Male""}",,,,,,,,,,,,,,,,
w904b67a,survey-text,8140,500810,,,,"{""Q0"":""45"",""Q1"":""Male""}",,,,,,,,,,,,,,,,
w12e7f08,survey-text,10916,1282154,,,,"{""Q0"":""29"",""Q1"":""female""}",,,,,,,,,,,,,,,,
we9dadfe,survey-text,6475,577753,,,,"{""Q0"":""2"",""Q1"":""Male""}",,,,,,,,,,,,,,,,
w5161ee5,survey-text,14848,957379,,,,"{""Q0"":""26"",""Q1"":""Male""}",,,,,,,,,,,,,,,,
waf67840,survey-text,9039,459213,,,,"{""Q0"":""35"",""Q1"":""female""}",,,,,,,,,,,,,,,,
wcf772a2,survey-text,15386,827002,,,,"{""Q0"":""33"",""Q1"":""female""}",,,,,,,,,,,,,,,,
w749fd27,survey-text,6907,681017,,,,"{""Q0"":""30"",""Q1"":""male""}",,,,,,,,,,,,,,,,
w57efc08,survey-text,6864,894664,,,,"{""Q0"":""27"",""Q1"":""Male""}",,,,,,,,,,,,,,,,
w2eb6ac9,survey-text,5218,894188,,,,"{""Q0"":""18"",""Q1"":""female""}",,,,,,,,,,,,,,,,
wda68de9,survey-text,10380,653134,,,,"{""Q0"":""37"",""Q1"":""Female""}",,,,,,,,,,,,,,,,
w1dca4e3,survey-text,8876,1139183,,,,"{""Q0"":""30"",""Q1"":""female""}",,,,,,,,,,,,,,,,
w28e0a19,survey-text,22520,695742,,,,"{""Q0"":""23"",""Q1"":""Male""}",,,,,,,,,,,,,,,,
wdec3721,survey-text,9055,855723,,,,"{""Q0"":""33"",""Q1"":""Female""}",,,,,,,,,,,,,,,,
wea78fe1,survey-text,9350,664577,,,,"{""Q0"":""26"",""Q1"":""female""}",,,,,,,,,,,,,,,,
w0fa21b3,survey-text,15057,741621,,,,"{""Q0"":""38"",""Q1"":""m""}",,,,,,,,,,,,,,,,
wdeb06cf,survey-text,14271,683592,,,,"{""Q0"":""29"",""Q1"":""female""}",,,,,,,,,,,,,,,,
wcd6e96f,survey-text,7134,858795,,,,"{""Q0"":""28"",""Q1"":""Male""}",,,,,,,,,,,,,,,,
wf744166,survey-text,8082,647455,,,,"{""Q0"":""25"",""Q1"":""male""}",,,,,,,,,,,,,,,,
w87952a5,survey-text,6940,613448,,,,"{""Q0"":""21"",""Q1"":""Female""}",,,,,,,,,,,,,,,,
w8de7b16,survey-text,9183,888479,,,,"{""Q0"":""44"",""Q1"":""female""}",,,,,,,,,,,,,,,,
w7fee6de,survey-text,13514,2407955,,,,"{""Q0"":""57"",""Q1"":""Female""}",,,,,,,,,,,,,,,,
we79e438,survey-text,6570,788320,,,,"{""Q0"":""33"",""Q1"":""Male""}",,,,,,,,,,,,,,,,
w6ace87f,survey-text,4163,551409,,,,"{""Q0"":""23"",""Q1"":""Female""}",,,,,,,,,,,,,,,,
w9f149de,survey-text,12226,1092142,,,,"{""Q0"":""27"",""Q1"":""Female""}",,,,,,,,,,,,,,,,
wacbed5c,survey-text,9819,689642,,,,"{""Q0"":""46"",""Q1"":""female""}",,,,,,,,,,,,,,,,
w3b22451,survey-text,8878,1192295,,,,"{""Q0"":""27"",""Q1"":""Black""}",,,,,,,,,,,,,,,,
w0bba8d9,survey-text,8907,620245,,,,"{""Q0"":""51"",""Q1"":""female""}",,,,,,,,,,,,,,,,
wab64aff,survey-text,5770,1260409,,,,"{""Q0"":""18"",""Q1"":""female""}",,,,,,,,,,,,,,,,
w0544983,survey-text,8466,606166,,,,"{""Q0"":""27"",""Q1"":""female""}",,,,,,,,,,,,,,,,
w6be21ab,survey-text,9447,767271,,,,"{""Q0"":""59"",""Q1"":""female""}",,,,,,,,,,,,,,,,
w05df988,survey-text,8127,604684,,,,"{""Q0"":""22"",""Q1"":""Male""}",,,,,,,,,,,,,,,,
w25b32ec,survey-text,8580,900455,,,,"{""Q0"":""28"",""Q1"":""male""}",,,,,,,,,,,,,,,,
wf120886,survey-text,22912,668479,,,,"{""Q0"":""30"",""Q1"":""Female""}",,,,,,,,,,,,,,,,
w59ee120,survey-text,6594,898126,,,,"{""Q0"":""21"",""Q1"":""female""}",,,,,,,,,,,,,,,,
wae0033c,survey-text,12384,578231,,,,"{""Q0"":""18"",""Q1"":""male""}",,,,,,,,,,,,,,,,
w5e354c0,survey-text,5939,810986,,,,"{""Q0"":""50"",""Q1"":""Male""}",,,,,,,,,,,,,,,,
w188610b,survey-text,9148,743331,,,,"{""Q0"":""19"",""Q1"":""male""}",,,,,,,,,,,,,,,,
wdaa5dd3,survey-text,8400,1929650,,,,"{""Q0"":""21"",""Q1"":""Female ""}",,,,,,,,,,,,,,,,
wae5ba04,survey-text,6874,835827,,,,"{""Q0"":""31"",""Q1"":""male""}",,,,,,,,,,,,,,,,
w2b3367b,survey-text,7145,515121,,,,"{""Q0"":""26"",""Q1"":""male""}",,,,,,,,,,,,,,,,
wecbeb4f,survey-text,13861,789234,,,,"{""Q0"":""20"",""Q1"":""Female""}",,,,,,,,,,,,,,,,
wafb71c6,survey-text,9629,650003,,,,"{""Q0"":""18"",""Q1"":""Male""}",,,,,,,,,,,,,,,,
w2c93f41,survey-text,15580,912637,,,,"{""Q0"":""63"",""Q1"":""male""}",,,,,,,,,,,,,,,,
w877f325,survey-text,92777,787179,,,,"{""Q0"":""26"",""Q1"":""Female""}",,,,,,,,,,,,,,,,
wde83d37,survey-text,8439,495622,,,,"{""Q0"":""51"",""Q1"":""female""}",,,,,,,,,,,,,,,,
w9093857,survey-text,4499,543578,,,,"{""Q0"":""24"",""Q1"":""Woman""}",,,,,,,,,,,,,,,,
w7bcac58,survey-text,10253,656161,,,,"{""Q0"":""23"",""Q1"":""F""}",,,,,,,,,,,,,,,,
wd4b9225,survey-text,17141,800274,,,,"{""Q0"":""24"",""Q1"":""Male""}",,,,,,,,,,,,,,,,
w050b594,survey-text,4683,929955,,,,"{""Q0"":""20"",""Q1"":""Male""}",,,,,,,,,,,,,,,,
wcad3752,survey-text,8141,505867,,,,"{""Q0"":""47"",""Q1"":""male""}",,,,,,,,,,,,,,,,
w7dc466a,survey-text,25029,634988,,,,"{""Q0"":""20"",""Q1"":""Male""}",,,,,,,,,,,,,,,,
w0af0759,survey-text,7525,651493,,,,"{""Q0"":""27"",""Q1"":""Female""}",,,,,,,,,,,,,,,,
w21b455b,survey-text,7134,516294,,,,"{""Q0"":""29"",""Q1"":""Female""}",,,,,,,,,,,,,,,,
w318dabf,survey-text,7544,806009,,,,"{""Q0"":""30"",""Q1"":""female""}",,,,,,,,,,,,,,,,
wccfc710,survey-text,12021,1321303,,,,"{""Q0"":""21"",""Q1"":""Male""}",,,,,,,,,,,,,,,,
w8e1cb64,survey-text,19554,779185,,,,"{""Q0"":""My current age is 22"",""Q1"":""I identify as a male""}",,,,,,,,,,,,,,,,
w2d702cb,survey-text,12638,901530,,,,"{""Q0"":""22"",""Q1"":""male""}",,,,,,,,,,,,,,,,
w5b73c55,survey-text,7612,591755,,,,"{""Q0"":""24"",""Q1"":""male""}",,,,,,,,,,,,,,,,
w8b0ce54,survey-text,8103,785706,,,,"{""Q0"":""18"",""Q1"":""Nonbinary""}",,,,,,,,,,,,,,,,
w0b466cd,survey-text,11546,1004823,,,,"{""Q0"":""30"",""Q1"":""Female""}",,,,,,,,,,,,,,,,
wd412d44,survey-text,12400,751400,,,,"{""Q0"":""56"",""Q1"":""male""}",,,,,,,,,,,,,,,,
w81036fc,survey-text,11602,652929,,,,"{""Q0"":""19"",""Q1"":""Female""}",,,,,,,,,,,,,,,,
wbf12e00,survey-text,15429,773384,,,,"{""Q0"":""59"",""Q1"":""female""}",,,,,,,,,,,,,,,,
w06ff26b,survey-text,8572,799270,,,,"{""Q0"":""29"",""Q1"":""female""}",,,,,,,,,,,,,,,,
we9b1d59,survey-text,11816,786509,,,,"{""Q0"":""26"",""Q1"":""Male""}",,,,,,,,,,,,,,,,
web1bbee,survey-text,9309,638428,,,,"{""Q0"":""47"",""Q1"":""female""}",,,,,,,,,,,,,,,,
w7e47f56,survey-text,7056,719016,,,,"{""Q0"":""33"",""Q1"":""female""}",,,,,,,,,,,,,,,,
wb3bf4a9,survey-text,6223,1776922,,,,"{""Q0"":""28"",""Q1"":""Female""}",,,,,,,,,,,,,,,,
w3ff0c26,survey-text,10084,969388,,,,"{""Q0"":""64"",""Q1"":""female""}",,,,,,,,,,,,,,,,
wbc6f2a5,survey-text,12299,735594,,,,"{""Q0"":""57"",""Q1"":""Female""}",,,,,,,,,,,,,,,,
w1c102db,survey-text,6273,1042285,,,,"{""Q0"":""29"",""Q1"":""Female""}",,,,,,,,,,,,,,,,
w0e13125,survey-text,25919,927032,,,,"{""Q0"":""19"",""Q1"":""Male""}",,,,,,,,,,,,,,,,
wdd68eec,survey-text,6928,642175,,,,"{""Q0"":""33"",""Q1"":""Female""}",,,,,,,,,,,,,,,,
w065e799,survey-text,7792,702487,,,,"{""Q0"":""18"",""Q1"":""Male""}",,,,,,,,,,,,,,,,
wf89c14f,survey-text,7889,735463,,,,"{""Q0"":""26"",""Q1"":""M""}",,,,,,,,,,,,,,,,
w08deefb,survey-text,10105,885735,,,,"{""Q0"":""29"",""Q1"":""female""}",,,,,,,,,,,,,,,,
w1d89ddc,survey-text,8067,1140851,,,,"{""Q0"":""31"",""Q1"":""FEMALE""}",,,,,,,,,,,,,,,,
wfab0200,survey-text,6827,573130,,,,"{""Q0"":""20"",""Q1"":""Male""}",,,,,,,,,,,,,,,,
wf37c034,survey-text,11517,757679,,,,"{""Q0"":""25"",""Q1"":""male""}",,,,,,,,,,,,,,,,
w53ae380,survey-text,8499,921812,,,,"{""Q0"":""29"",""Q1"":""Male""}",,,,,,,,,,,,,,,,
w92c0b11,survey-text,11069,912524,,,,"{""Q0"":""44"",""Q1"":""Female""}",,,,,,,,,,,,,,,,
wd6c6913,survey-text,7715,844314,,,,"{""Q0"":""26"",""Q1"":""Female""}",,,,,,,,,,,,,,,,
w2b81c38,survey-text,15938,965184,,,,"{""Q0"":""23"",""Q1"":""Female""}",,,,,,,,,,,,,,,,
w9619c4b,survey-text,17904,1365806,,,,"{""Q0"":""36"",""Q1"":""Female""}",,,,,,,,,,,,,,,,
wa586ae0,survey-text,5321,551530,,,,"{""Q0"":""30"",""Q1"":""Male""}",,,,,,,,,,,,,,,,
w4a3ef36,survey-text,9938,534285,,,,"{""Q0"":""35"",""Q1"":""male""}",,,,,,,,,,,,,,,,
w753dd3e,survey-text,14778,652104,,,,"{""Q0"":""37"",""Q1"":""female""}",,,,,,,,,,,,,,,,
w995bd68,survey-text,8365,553477,,,,"{""Q0"":""18"",""Q1"":""Male""}",,,,,,,,,,,,,,,,
wfc6440c,survey-text,4900,484333,,,,"{""Q0"":""25"",""Q1"":""Male""}",,,,,,,,,,,,,,,,
w6e3ac42,survey-text,16425,547031,,,,"{""Q0"":""26"",""Q1"":""female""}",,,,,,,,,,,,,,,,
wfe06a6d,survey-text,31337,723544,,,,"{""Q0"":""24"",""Q1"":""genderqueer/nonbinary""}",,,,,,,,,,,,,,,,
w37e2365,survey-text,5874,995149,,,,"{""Q0"":""59"",""Q1"":""female""}",,,,,,,,,,,,,,,,
wfdd6fa3,survey-text,12269,798367,,,,"{""Q0"":""32"",""Q1"":""Female""}",,,,,,,,,,,,,,,,
w65ae095,survey-text,6983,599014,,,,"{""Q0"":""37"",""Q1"":""male""}",,,,,,,,,,,,,,,,
wfb1d6d3,survey-text,7774,597931,,,,"{""Q0"":""31"",""Q1"":""Female""}",,,,,,,,,,,,,,,,
w960c9e9,survey-text,5648,493163,,,,"{""Q0"":""20"",""Q1"":""male""}",,,,,,,,,,,,,,,,
wf818101,survey-text,8371,544965,,,,"{""Q0"":""21"",""Q1"":""Woman""}",,,,,,,,,,,,,,,,
w70f49c8,survey-text,10707,1267424,,,,"{""Q0"":""57"",""Q1"":""female""}",,,,,,,,,,,,,,,,
wec34db6,survey-text,10214,642420,,,,"{""Q0"":""32"",""Q1"":""Female""}",,,,,,,,,,,,,,,,
w4034395,survey-text,13140,1002750,,,,"{""Q0"":""30"",""Q1"":""female""}",,,,,,,,,,,,,,,,
wf953efc,survey-text,19220,1187614,,,,"{""Q0"":""71"",""Q1"":""f""}",,,,,,,,,,,,,,,,
we4ae6a5,survey-text,6408,628036,,,,"{""Q0"":""25"",""Q1"":""Male""}",,,,,,,,,,,,,,,,
wab18c99,survey-text,11784,1567773,,,,"{""Q0"":""32"",""Q1"":""male""}",,,,,,,,,,,,,,,,
w895d2ea,survey-text,8346,846238,,,,"{""Q0"":""23"",""Q1"":""Female""}",,,,,,,,,,,,,,,,
weaf873e,survey-text,8188,927031,,,,"{""Q0"":""21"",""Q1"":""Female""}",,,,,,,,,,,,,,,,
wba1ad94,survey-text,10200,662263,,,,"{""Q0"":""41"",""Q1"":""Female""}",,,,,,,,,,,,,,,,
w26cd91a,survey-text,8400,1038623,,,,"{""Q0"":""40"",""Q1"":""female""}",,,,,,,,,,,,,,,,
w18aa781,survey-text,7169,986231,,,,"{""Q0"":""25"",""Q1"":""Female""}",,,,,,,,,,,,,,,,
w5a0a204,survey-text,19471,1743496,,,,"{""Q0"":""31"",""Q1"":""male""}",,,,,,,,,,,,,,,,
w5048ab3,survey-text,13007,967036,,,,"{""Q0"":""56"",""Q1"":""female""}",,,,,,,,,,,,,,,,
w2db98bb,survey-text,20219,2597357,,,,"{""Q0"":""51"",""Q1"":""Female ""}",,,,,,,,,,,,,,,,
w08cbdf0,survey-text,9163,975890,,,,"{""Q0"":""34"",""Q1"":""male""}",,,,,,,,,,,,,,,,
w1f2fdb1,survey-text,8576,682858,,,,"{""Q0"":""25"",""Q1"":""Male""}",,,,,,,,,,,,,,,,
wccbd8f4,survey-text,7911,1060330,,,,"{""Q0"":""49"",""Q1"":""Female""}",,,,,,,,,,,,,,,,
w3ad5cf2,survey-text,6909,597566,,,,"{""Q0"":""42"",""Q1"":""Male""}",,,,,,,,,,,,,,,,
we7bdf81,survey-text,10574,862248,,,,"{""Q0"":""38"",""Q1"":""female""}",,,,,,,,,,,,,,,,
wd0b2599,survey-text,7418,692750,,,,"{""Q0"":""25"",""Q1"":""female""}",,,,,,,,,,,,,,,,
w9444c7a,survey-text,6369,601569,,,,"{""Q0"":""22"",""Q1"":""Male""}",,,,,,,,,,,,,,,,
w8a8719d,survey-text,9023,682208,,,,"{""Q0"":""20"",""Q1"":""Male""}",,,,,,,,,,,,,,,,
w12cbe12,survey-text,9902,782804,,,,"{""Q0"":""22"",""Q1"":""Female""}",,,,,,,,,,,,,,,,
wc217a1c,survey-text,7204,770687,,,,"{""Q0"":""26"",""Q1"":""female""}",,,,,,,,,,,,,,,,
wc9e0f99,survey-text,11455,665981,,,,"{""Q0"":""33"",""Q1"":""male""}",,,,,,,,,,,,,,,,
wae3ee5a,survey-text,6827,734935,,,,"{""Q0"":""21"",""Q1"":""female""}",,,,,,,,,,,,,,,,
wd28b774,survey-text,12141,812232,,,,"{""Q0"":""23"",""Q1"":""Male""}",,,,,,,,,,,,,,,,
wc40c24f,survey-text,19670,792325,,,,"{""Q0"":""32"",""Q1"":""nonbinary""}",,,,,,,,,,,,,,,,
wbaa62a3,survey-text,10545,678422,,,,"{""Q0"":""19"",""Q1"":""Female""}",,,,,,,,,,,,,,,,
w69975bf,survey-text,9185,834881,,,,"{""Q0"":""32"",""Q1"":""Female""}",,,,,,,,,,,,,,,,
w7501d8f,survey-text,8701,696794,,,,"{""Q0"":""24"",""Q1"":""Male""}",,,,,,,,,,,,,,,,
w9cde8e8,survey-text,11771,713421,,,,"{""Q0"":""44"",""Q1"":""female""}",,,,,,,,,,,,,,,,
w97f6d99,survey-text,20869,2438451,,,,"{""Q0"":""27"",""Q1"":""Female""}",,,,,,,,,,,,,,,,
wda32056,survey-text,5895,554339,,,,"{""Q0"":""18"",""Q1"":""male""}",,,,,,,,,,,,,,,,
wb377de3,survey-text,11443,699091,,,,"{""Q0"":""38"",""Q1"":""male""}",,,,,,,,,,,,,,,,
we538d20,survey-text,20069,712401,,,,"{""Q0"":""20"",""Q1"":""male""}",,,,,,,,,,,,,,,,
w35ddc3e,survey-text,6074,752290,,,,"{""Q0"":""24"",""Q1"":""Male""}",,,,,,,,,,,,,,,,
wb6cf251,survey-text,10827,701091,,,,"{""Q0"":""55"",""Q1"":""Female""}",,,,,,,,,,,,,,,,
w1a610e6,survey-text,10035,912770,,,,"{""Q0"":""43"",""Q1"":""male""}",,,,,,,,,,,,,,,,
wba94fbc,survey-text,8939,699972,,,,"{""Q0"":""23"",""Q1"":""Male""}",,,,,,,,,,,,,,,,
we989ff9,survey-text,34972,949915,,,,"{""Q0"":""21"",""Q1"":""Female""}",,,,,,,,,,,,,,,,
w7ccb9b4,survey-text,16314,1980030,,,,"{""Q0"":""21"",""Q1"":""male""}",,,,,,,,,,,,,,,,
wae4d5b9,survey-text,9958,816433,,,,"{""Q0"":""20"",""Q1"":""Male""}",,,,,,,,,,,,,,,,
w3b509c1,survey-text,9848,586805,,,,"{""Q0"":""35"",""Q1"":""male""}",,,,,,,,,,,,,,,,
wc440930,survey-text,9480,665244,,,,"{""Q0"":""36"",""Q1"":""female""}",,,,,,,,,,,,,,,,
w87235fc,survey-text,20404,590160,,,,"{""Q0"":""23"",""Q1"":""male""}",,,,,,,,,,,,,,,,
wce40e34,survey-text,20068,1132221,,,,"{""Q0"":""28"",""Q1"":""Male""}",,,,,,,,,,,,,,,,
web72dbc,survey-text,15277,1825500,,,,"{""Q0"":""46"",""Q1"":""female""}",,,,,,,,,,,,,,,,
w8661de2,survey-text,11973,914696,,,,"{""Q0"":""37"",""Q1"":""m""}",,,,,,,,,,,,,,,,
w5e72b5a,survey-text,9675,668140,,,,"{""Q0"":""31"",""Q1"":""Male""}",,,,,,,,,,,,,,,,
w9505bbc,survey-text,8637,575908,,,,"{""Q0"":""25"",""Q1"":""Female""}",,,,,,,,,,,,,,,,
we065091,survey-text,10899,692617,,,,"{""Q0"":""52"",""Q1"":""Male""}",,,,,,,,,,,,,,,,
w776ae0f,survey-text,7234,723005,,,,"{""Q0"":""31"",""Q1"":""Female""}",,,,,,,,,,,,,,,,
w4f02d19,survey-text,35431,1119268,,,,"{""Q0"":""19"",""Q1"":""Female""}",,,,,,,,,,,,,,,,
w4222fa9,survey-text,20281,807402,,,,"{""Q0"":""36"",""Q1"":""male""}",,,,,,,,,,,,,,,,
w4c3d5f1,survey-text,13036,1143394,,,,"{""Q0"":""19"",""Q1"":""male""}",,,,,,,,,,,,,,,,
wdc4f3cf,survey-text,7623,668986,,,,"{""Q0"":""33"",""Q1"":""Male""}",,,,,,,,,,,,,,,,
w270f425,survey-text,11742,808495,,,,"{""Q0"":""21"",""Q1"":""Male""}",,,,,,,,,,,,,,,,
w4c4372c,survey-text,11079,730136,,,,"{""Q0"":""23"",""Q1"":""female""}",,,,,,,,,,,,,,,,
w92c5e59,survey-text,12972,1425942,,,,"{""Q0"":""57"",""Q1"":""Female""}",,,,,,,,,,,,,,,,
wa63f90c,survey-text,15141,985433,,,,"{""Q0"":""42"",""Q1"":""female""}",,,,,,,,,,,,,,,,
w5dd304d,survey-text,11976,729685,,,,"{""Q0"":""57"",""Q1"":""female""}",,,,,,,,,,,,,,,,
wc284d5b,survey-text,10625,708678,,,,"{""Q0"":""33"",""Q1"":""Male""}",,,,,,,,,,,,,,,,
w65c1aa9,survey-text,11837,688857,,,,"{""Q0"":""38"",""Q1"":""male""}",,,,,,,,,,,,,,,,
w972b8b1,survey-text,12277,858131,,,,"{""Q0"":""26"",""Q1"":""Female""}",,,,,,,,,,,,,,,,
w061e08c,survey-text,9325,1056119,,,,"{""Q0"":""20"",""Q1"":""Female""}",,,,,,,,,,,,,,,,
w4469e10,survey-text,10012,662267,,,,"{""Q0"":""20"",""Q1"":""female""}",,,,,,,,,,,,,,,,
w4b6a213,survey-text,9041,712520,,,,"{""Q0"":""31"",""Q1"":""Female""}",,,,,,,,,,,,,,,,
w45da468,survey-text,8410,773518,,,,"{""Q0"":""35"",""Q1"":""female""}",,,,,,,,,,,,,,,,
w34a9edb,survey-text,11806,548764,,,,"{""Q0"":""19"",""Q1"":""female/gender questioning ""}",,,,,,,,,,,,,,,,
w40f9c3e,survey-text,16298,911309,,,,"{""Q0"":""59"",""Q1"":""Female""}",,,,,,,,,,,,,,,,
w9975f20,survey-text,9169,570693,,,,"{""Q0"":""19"",""Q1"":""woman""}",,,,,,,,,,,,,,,,
