wid,trial_type,time_elapsed,view_history,rt,responses,questions,correct,stimulus,button_pressed,action_times,prs,simulation_mode,score,block,rewards,path,trial_id,state_rewards,trial_time,queries,delays,trial_index,actions,key_press,restarts
wb5c4616,survey-text,804608,,77264,"{""Q0"":""Commit to check one direction only and follow your instincts. ""}",,,,,,,,,,,,,,,,,,,,
wb5c4616,survey-text,970620,,164992,"{""Q0"":""Stick with the path you've chosen if you can. "",""Q1"":""Deciding what skills I want to improve to increase my job opportunities. "",""Q2"":""Committing to a set path and seeing it through to the bitter end. ""}",,,,,,,,,,,,,,,,,,,,
wb5c4616,survey-text,1091653,,120014,"{""Q0"":""Pick one direction and hope for the best. ""}",,,,,,,,,,,,,,,,,,,,
w9587943,survey-text,305186,,25217,"{""Q0"":""Prioritize clicking on the \""long-term\"" circles to find out what reward you may get in the end.""}",,,,,,,,,,,,,,,,,,,,
w9587943,survey-text,353295,,47104,"{""Q0"":""Look ahead further down the line and see where you will be and what you will be doing."",""Q1"":""Schooling (college)."",""Q2"":""I must look ahead to make sure I make good decisions to end up with a good, quality job.""}",,,,,,,,,,,,,,,,,,,,
w9587943,survey-text,442220,,87906,"{""Q0"":""I should start by looking at the end of the trip (the flight cost).  Then, work backwards to find the cheapest route.""}",,,,,,,,,,,,,,,,,,,,
w4c674a4,survey-text,293289,,16746,"{""Q0"":""Click the outside nodes first""}",,,,,,,,,,,,,,,,,,,,
w4c674a4,survey-text,347044,,52750,"{""Q0"":""You have to make sacrifices for your long term goals"",""Q1"":""Deciding whether to save or buy big purchase items when you have less money"",""Q2"":""Saving your money now could help you buy more in the future""}",,,,,,,,,,,,,,,,,,,,
w4c674a4,survey-text,394622,,46573,"{""Q0"":""It is worth finding out the prices to get your clients the cheapest options possible""}",,,,,,,,,,,,,,,,,,,,
wd022725,survey-text,829541,,42342,"{""Q0"":""That if I am willing to wait, the rewards will usually be greater. Short term decisions can be costly when it ignores the end game.""}",,,,,,,,,,,,,,,,,,,,
wd022725,survey-text,882283,,51733,"{""Q0"":""Look for the highest payout "",""Q1"":""Going back to school"",""Q2"":""The long term reward has many ups and downs but the final result is worth it""}",,,,,,,,,,,,,,,,,,,,
wd022725,survey-text,955323,,72035,"{""Q0"":""Find the least stops possible and price out the accommodations.""}",,,,,,,,,,,,,,,,,,,,
w5c71f76,survey-text,644476,,38386,"{""Q0"":""evaluate what I have clicked already and take the path that is more fruitful.""}",,,,,,,,,,,,,,,,,,,,
w5c71f76,survey-text,921921,,276434,"{""Q0"":""To make good decisions get information to before you take your next step. After learning the information, use it to make the next bigger decision, and let it guide you to a better outcome."",""Q1"":""When thinking about a career to pursue, I get information on what the job will be like, how others doing the job feel about that job, the amount of pay for the job, and use this information to take steps to decide if I want to go that path or not."",""Q2"":""I gained small pieces of information that guided me to ultimately get the ideal job that I wanted. ""}",,,,,,,,,,,,,,,,,,,,
w5c71f76,survey-text,1173467,,250514,"{""Q0"":""I would look at how many cities were in between my stop and the airport. I would then only call the hotels on the route that had the least amount of stops (2).""}",,,,,,,,,,,,,,,,,,,,
waf5a872,survey-text,423287,,17041,"{""Q0"":""Change paths every so often.""}",,,,,,,,,,,,,,,,,,,,
waf5a872,survey-text,489560,,65268,"{""Q0"":""Sometimes you need to take chances. Don't be discouraged by setbacks."",""Q1"":""Making decisions in my career."",""Q2"":""Some career choices pay off and others do not. It is important to be resilient.""}",,,,,,,,,,,,,,,,,,,,
waf5a872,survey-text,569401,,78822,"{""Q0"":""I will take chances and not get discouraged.""}",,,,,,,,,,,,,,,,,,,,
w7ecb076,survey-text,959324,,240019,"{""Q0"":""there are 3 paths that branch off into two more each. discovering the pay off at the end of the paths will be more worthwhile prior to moving. since there is a max payout, it is more advantageous to click until an option with max payout is revealed, then moving toward that end.""}",,,,,,,,,,,,,,,,,,,,
w7ecb076,survey-text,1129405,,169047,"{""Q0"":""discover an acceptable end goal, then move toward that regardless of the cost."",""Q1"":""figuring out what to do with my life. settling on a worthwhile outcome, then just making my way towards that end."",""Q2"":""by accepting the costs or setbacks that may come my way, keeping my sights on the end goal and moving forward. ""}",,,,,,,,,,,,,,,,,,,,
w7ecb076,survey-text,1422796,,292361,"{""Q0"":""Given the current parameters, I'm not sure. There isn't a max cost detailed.""}",,,,,,,,,,,,,,,,,,,,
w720959a,survey-text,697268,,41509,"{""Q0"":""That it is good to play it safe. Sticking with a pattern.""}",,,,,,,,,,,,,,,,,,,,
w720959a,survey-text,811061,,112754,"{""Q0"":""You can have good luck in life."",""Q1"":""Having different patterns to follow."",""Q2"":""Finding a way to increase your odds.""}",,,,,,,,,,,,,,,,,,,,
w720959a,survey-text,901104,,88948,"{""Q0"":""To play it safe and look for the best opportunity. ""}",,,,,,,,,,,,,,,,,,,,
w90a87ff,survey-text,260601,,21753,"{""Q0"":""Look at the outer circles, the last steps of each web to find the highest value""}",,,,,,,,,,,,,,,,,,,,
w90a87ff,survey-text,363261,,101548,"{""Q0"":""Sometimes spending a little/ investing a little on the front end can earn you bigger rewards long term"",""Q1"":""I could expand my current investment interests. Something thats not monetary might be doing homework, I invest some time and effort for a big payoff in a degree"",""Q2"":""It is similar because each action I take might cost me something but it will pay off in the future""}",,,,,,,,,,,,,,,,,,,,
w90a87ff,survey-text,438860,,74587,"{""Q0"":""I will try to manage my time by looking at as few options as possible, I can maximize my efforts and time spent by looking at the prices of the final hotel and perhaps a few others, but not many ""}",,,,,,,,,,,,,,,,,,,,
w2aa1856,survey-text,888994,,13597,"{""Q0"":""i had to think deeper""}",,,,,,,,,,,,,,,,,,,,
w2aa1856,survey-text,933378,,43379,"{""Q0"":""this is life "",""Q1"":""when i found my job "",""Q2"":""my strategy worked very well ""}",,,,,,,,,,,,,,,,,,,,
w2aa1856,survey-text,978761,,44378,"{""Q0"":""i will use my stretchy ""}",,,,,,,,,,,,,,,,,,,,
w0bfa5f6,survey-text,313983,,24723,"{""Q0"":""Click on all three of the first set of nodes to rule out any high negative values""}",,,,,,,,,,,,,,,,,,,,
w0bfa5f6,survey-text,424508,,109519,"{""Q0"":""Sometimes making a decision with negative consequences in the beginning allows for bigger returns in the end."",""Q1"":""Quitting a job you like o pursue a career in a new field which may lead to higher pay and a happier work environment."",""Q2"":""There are consequences in the beginning such as taking a lower paying position but you can work your way up to a higher, better position.""}",,,,,,,,,,,,,,,,,,,,
w0bfa5f6,survey-text,470142,,44618,"{""Q0"":""Find out the cost of each of the first three cities.""}",,,,,,,,,,,,,,,,,,,,
wa13eb59,survey-text,250440,,15421,"{""Q0"":""I can  reveal the end points to see what the value is with the least path of resistance. ""}",,,,,,,,,,,,,,,,,,,,
wa13eb59,survey-text,306069,,54602,"{""Q0"":""Make sure to plan out the mission, have an endgame to prepare for."",""Q1"":""It's important to spend carefully and save wisely."",""Q2"":""It is similar because one must save their cash until the later rounds just like in life (when unexpected expenses come about). ""}",,,,,,,,,,,,,,,,,,,,
wa13eb59,survey-text,328611,,21523,"{""Q0"":""I would plan out of trek and see the cheapest routes and methods for attaining a  reasonable trip. ""}",,,,,,,,,,,,,,,,,,,,
w53e11ab,survey-text,453394,,100189,"{""Q0"":""Click only on the farthest node first. The first two nodes are generally low risk.""}",,,,,,,,,,,,,,,,,,,,
w53e11ab,survey-text,569108,,114709,"{""Q0"":""Look into the long run. The short term choices might make the long-term choices easier to get to, but it's really the big long-term goal that makes the biggest difference."",""Q1"":""Scrimping money now and saving it for larger purchases later. "",""Q2"":""See the long run.""}",,,,,,,,,,,,,,,,,,,,
w53e11ab,survey-text,625870,,55748,"{""Q0"":""I have no idea.""}",,,,,,,,,,,,,,,,,,,,
w5f379af,survey-text,259301,,27159,"{""Q0"":""Try as few as possible. Go with the best option even if it is not perfect.""}",,,,,,,,,,,,,,,,,,,,
w5f379af,survey-text,382228,,121876,"{""Q0"":""I learned that short term goals and long term goals are different things. You have to be sure to plan for both. It is okay to fail at the start if you will succeed at the end."",""Q1"":""I take medication for anxiety issues."",""Q2"":""It makes me feel worse in the short term but will help me more in the long term. I have to make the trade offs just like in the game.""}",,,,,,,,,,,,,,,,,,,,
w5f379af,survey-text,430051,,46811,"{""Q0"":""I would make the fewest choices possible in order to achieve a good enough result.""}",,,,,,,,,,,,,,,,,,,,
w71d83d7,survey-text,2826544,,117903,"{""Q0"":""I considered the importance of moving to the right first, then to the left to ensure that will be a good path without spending too much time on clicks. Also I had spaced my move as per the request.""}",,,,,,,,,,,,,,,,,,,,
w71d83d7,survey-text,3030178,,202593,"{""Q0"":""I do not know ! Sorry!"",""Q1"":""I can use this to: Identify my goals and priorities, gather information weighing all options (within the timelimits), Consider the consequence (losing $1 to find what the value is?), make my decision, finally : evaluate my decision to ensure my strategy works well.\n"",""Q2"":""Moving to the right left or top - we do not know what lies ahead, without having a stepping stone (like someone showing the price ahead for $1) and then making the move.""}",,,,,,,,,,,,,,,,,,,,
w71d83d7,survey-text,3822065,,790830,"{""Q0"":""I have never been a travel agent OR did any travel. Though i worked in Airlines and Transportation industry.""}",,,,,,,,,,,,,,,,,,,,
w64cf2b3,survey-text,433628,,53126,"{""Q0"":""Clicking on the farthest nodes, as those have the biggest impact on the overall value.  Once you hit a high node, you don't have to waste any more clicks.""}",,,,,,,,,,,,,,,,,,,,
w64cf2b3,survey-text,668950,,234305,"{""Q0"":""You should think about the long term consequences, good or bad, of a decision.  A small \""feel-good\"" action now might lead to larger consequences down the road, and taking a small loss right now might lead to a great success."",""Q1"":""I am about to graduate from college.  Even though I want to feel good by spending my time watching videos and relaxing, I need to work on my job search, even though it isn't enjoyable, because in order to move forward in life (and keep doing those things in the future), I need to have a stable career."",""Q2"":""It is similar because I have to sacrifice short-term happiness for long-term life satisfaction and success.""}",,,,,,,,,,,,,,,,,,,,
w64cf2b3,survey-text,771379,,101408,"{""Q0"":""I could check the price of the hotel at each airport, as I will choose one of those points no matter what, as the final price matters.""}",,,,,,,,,,,,,,,,,,,,
w70394ea,survey-text,350783,,45919,"{""Q0"":""check the value of the node on the last move, if it's a plus go that direction, if it's negative, go a different way""}",,,,,,,,,,,,,,,,,,,,
w70394ea,survey-text,509487,,157664,"{""Q0"":""Try making decisions that are more likely to have long-term (higher) benefits"",""Q1"":""With interest rates on credit cards so high and interest on savings accounts so low, it makes more sense to use extra money to pay off those cards rather than put in savings. "",""Q2"":""I know where I want to get, but don't always know the pot-holes along the way.""}",,,,,,,,,,,,,,,,,,,,
w70394ea,survey-text,580030,,69507,"{""Q0"":""check the price of the hotels at the final leg of the journey""}",,,,,,,,,,,,,,,,,,,,
w09309ae,survey-text,609364,,76644,"{""Q0"":""To increase the chances, start by looking at the long term path (click the nodes at the end of the pathways). When you find the optimal long term path (the highest value available, +48), go to that path without worrying about what the short term consequences are (the first and second order nodes). ""}",,,,,,,,,,,,,,,,,,,,
w09309ae,survey-text,934052,,323661,"{""Q0"":""Identify long term goals. Once you find a long term goal that is optimal, follow that path without too much worry about what the short-term, smaller scale consequences are."",""Q1"":""This works well for life goals that require delayed gratification, where you might have to make short term sacrifices or hold off on getting a reward early on in order to get the bigger reward later on. For example, I went to college where I had too spend money to get a good education and am now in an entry level position that doesn't make a lot of money, but these should help me get the \""big long term reward\"" of a high paying job."",""Q2"":""This situation requires me to keep the long term goal with high-consequences in mind. To get the highest reward possible (or the best job possible), I have to take some short term hits first.""}",,,,,,,,,,,,,,,,,,,,
w09309ae,survey-text,1021086,,86008,"{""Q0"":""I would only find out the price of the hotels in the last city without worrying about the hotel prices of the others along the route.""}",,,,,,,,,,,,,,,,,,,,
w5d50abb,survey-text,354649,,49713,"{""Q0"":""I was focusing on clicking on the end circles instead of the circles closest to me.  Normally the higher numbers were at the end and smaller numbers on the closer circles so the end number had more reward so I cared about that the most.""}",,,,,,,,,,,,,,,,,,,,
w5d50abb,survey-text,435840,,80138,"{""Q0"":""That even though sometimes it's nice to have instant gratification, it's usually more rewarding if you wait it out for things. "",""Q1"":""Saving up for a nice item instead of buying a cheaper knock off brand"",""Q2"":""Because instead of buying the cheaper item which I can have right away, I should wait and save up to buy the better item that will most of the time last longer.""}",,,,,,,,,,,,,,,,,,,,
w5d50abb,survey-text,503445,,66559,"{""Q0"":""Start from the destination and work your way backwards.  Try to look up the best routes to maybe cut some time off of the trip and possibly not have to stay over night as much and save money that way.""}",,,,,,,,,,,,,,,,,,,,
w4cf2017,survey-text,243890,,50817,"{""Q0"":""Find a positive path in the first set and then check the endings of it to make sure they are not bad.""}",,,,,,,,,,,,,,,,,,,,
w4cf2017,survey-text,345724,,100827,"{""Q0"":""Think about the long-term consequences of actions before you make a decision, even if an action has minor consequences in the short term it may be worth it in the long run"",""Q1"":""Decided whether or not to change jobs"",""Q2"":""There may be a short-term penalty/unpleasantness but the long-term rewards may be so good that it is worth it.""}",,,,,,,,,,,,,,,,,,,,
w4cf2017,survey-text,464299,,117556,"{""Q0"":""Use the research for cities toward the end and the beginning to decide which way to go and then just deal with whatever is in the middle.""}",,,,,,,,,,,,,,,,,,,,
w30653fa,survey-text,502414,,60767,"{""Q0"":""Clicking on the long-term nodes to see what you will earn at the end will help you spend less money on clicks.""}",,,,,,,,,,,,,,,,,,,,
w30653fa,survey-text,661849,,158410,"{""Q0"":""Always think about the end goal. There will be hardships in life but the end goal will make it worth it."",""Q1"":""Going to college to get a degree and then a high-paying job."",""Q2"":""The end goal is a good job with good wages. The hardships are the college classes, tests I have to pass, and good grades.""}",,,,,,,,,,,,,,,,,,,,
w30653fa,survey-text,775839,,112969,"{""Q0"":""See how expensive the flights are at the end, then slowly move backward from the hotels.""}",,,,,,,,,,,,,,,,,,,,
wa797a3e,survey-text,286152,,48261,"{""Q0"":""Click end path which typically yields the highest or lowest node you will receive. Meaning if my end path is 48 all cost occurred probably wont total 48 and end in a net gain. ""}",,,,,,,,,,,,,,,,,,,,
wa797a3e,survey-text,444163,,156966,"{""Q0"":""Focus on the end goal, regardless if the path sets you back at first it will be worth it in the end!"",""Q1"":""Instead of paying for a cheap tire, and off brand oil and incurring a major auto shop bill you decided to incur the big cost first and end up saving way more than letting it deteriorate to a worse condition."",""Q2"":""It's similar in that you can choose to do the cheapest path but it may end up costing you more in the long run vs. taking a loss in the start but end up either gaining or at the least not losing as much as the other path.""}",,,,,,,,,,,,,,,,,,,,
wa797a3e,survey-text,495650,,50447,"{""Q0"":""I will apply what I've learned by viewing the last three stops first and plan backwards from that. ""}",,,,,,,,,,,,,,,,,,,,
w543c0d2,survey-text,394688,,52581,"{""Q0"":""look at the long term consequences, there may be bumps in the road on the way but if the reward is there long term it is possibly worth it""}",,,,,,,,,,,,,,,,,,,,
w543c0d2,survey-text,531297,,135604,"{""Q0"":""click the end points until you see at least a 24 or a 48, then navigate there"",""Q1"":""getting my first good job, I could see the rewards but I had to spend some years qualifying and training for it."",""Q2"":""I had very little money as a student, had to go through the training and serve my time on the job before life got easier and well rewarded""}",,,,,,,,,,,,,,,,,,,,
w543c0d2,survey-text,681430,,149118,"{""Q0"":""I would look starting at the endpoint and find the cheapest""}",,,,,,,,,,,,,,,,,,,,
w7ea75dd,survey-text,389045,,82771,"{""Q0"":""After practicing i think i can increase my chances of finding a good path by simply clicking on the end result as that is the main reason on if a path is a good path.""}",,,,,,,,,,,,,,,,,,,,
w7ea75dd,survey-text,649314,,259259,"{""Q0"":""I would describe it as determining what is your goal in life ? Once you have that in mind, you can determine what steps need to be made to get you to your goal."",""Q1"":""I can think my decision of really wanting a laptop to play games when I was in high school. I knew I couldn't afford it but I knew I had to plan in advance to find a way to save enough money to buy it."",""Q2"":""Its similar because I had a goal i wanted to achieve (buy laptop) and i just had to determine the steps I needed to take to reach my goal.""}",,,,,,,,,,,,,,,,,,,,
w7ea75dd,survey-text,791345,,140997,"{""Q0"":""I would first take a look at the prices for the final city first and see how much they cost and then I would take a look a few of the cities to see how much they cost and to see if its worthwhile to look at more stops.""}",,,,,,,,,,,,,,,,,,,,
w8cc6fec,survey-text,582395,,38364,"{""Q0"":""Trying to locate the 48 because it's the most valuable,""}",,,,,,,,,,,,,,,,,,,,
w8cc6fec,survey-text,980077,,396671,"{""Q0"":""Invest for the long term."",""Q1"":""Spend money to make more money."",""Q2"":""For the Web of Cash game, initially i wanted to make as few clicks as possible, but really soon after i realized that spending more money for clicks to find the highest amount is reduces the risk of me losing money and increases the likelihood of me profiting big.""}",,,,,,,,,,,,,,,,,,,,
w8cc6fec,survey-text,1549770,,568672,"{""Q0"":""Well just like the Web of Cash game, the final locations were always the most expensive. I'm going to assume that hotels are generally pricier next to airports because of the high volume of people constantly passing through. Now considering this, I'd see which of the \""airport\"" cities are the cheapest for a hotel. If 2 of the expensive hotels are equal price, i'd then start going following the flight path backwards and compare the prices of the other regular city hotels.""}",,,,,,,,,,,,,,,,,,,,
wcfef0e9,survey-text,544140,,23550,"{""Q0"":""find the highest paying final node first""}",,,,,,,,,,,,,,,,,,,,
wcfef0e9,survey-text,642238,,97089,"{""Q0"":""make sure that what you are searching for is available"",""Q1"":""having a plan and then doing whatever it takes to reach a goal"",""Q2"":""the prize at the end of the journey is the best way to go""}",,,,,,,,,,,,,,,,,,,,
wcfef0e9,survey-text,718556,,75277,"{""Q0"":""checking the terminals on each route to find the best deal""}",,,,,,,,,,,,,,,,,,,,
w939f72e,survey-text,294691,,34193,"{""Q0"":""My strategy was to click the 'long term' cash values first, because the path that gave +48 at the end was always the correct answer""}",,,,,,,,,,,,,,,,,,,,
w939f72e,survey-text,378546,,82829,"{""Q0"":""Take a look at the long term outcomes first, even if you lose money in  the short term it is better to gain it in the long run"",""Q1"":""I am studying medicine right now and the debt that I go into to afford medical school is just ann investment to get me to the greater rewards at the end"",""Q2"":""If i lose -2 and -4 on the first few steps it won't matter because I'll get the 48 at the end anyway""}",,,,,,,,,,,,,,,,,,,,
w939f72e,survey-text,445019,,65447,"{""Q0"":""I will determine the best path by seeing what the cost is at the junctions ""}",,,,,,,,,,,,,,,,,,,,
w7058cab,survey-text,637670,,70516,"{""Q0"":""Stay oriented towards the terminal ends, where there are higher or lower values of money, and only stay on the long-term goals or outer circle of nodes of life.""}",,,,,,,,,,,,,,,,,,,,
w7058cab,survey-text,1787284,,1148594,"{""Q0"":""Just make sure to focus and not distract the spider with medium-level nodes and also make sure to check for the biggest reward you can get on the outside nodes or goals. Just think of it like life, and don't get discouraged. Make sure you can achieve a big goal and stop if you know it's a good outcome."",""Q1"":""If I just focus on taking jobs that I can do, I'm a transcriptionist, that are higher paying, I will be better off. Although I might be scared and it's a little more taxing, I can achieve better results. It will give me oomph to go on as well, when I see better results. If I just do jobs that are easier, I may have income, but not as much. "",""Q2"":""It is an extremely similar situation, because I know there are good rewards available in my job, I just have to find them. Also, both seem to take a bit of patience and forethought.""}",,,,,,,,,,,,,,,,,,,,
w7058cab,survey-text,1910398,,122025,"{""Q0"":""I will count how many possibilities or nodes there are in between me and my goal, the airport, and also find an average cost to the nodes. If I find a cost that seems right, it's probably right and I should just go on. I might also avoid, if I knew, which cities or hotels were rather expensive and avoid those.""}",,,,,,,,,,,,,,,,,,,,
wbbb57a3,survey-text,461631,,58950,"{""Q0"":""just try as much as possible to guess correctly""}",,,,,,,,,,,,,,,,,,,,
wbbb57a3,survey-text,622214,,159566,"{""Q0"":""that life is all about risk."",""Q1"":""trying to set a goals you never think you can accomplish "",""Q2"":""because it both involves risk ""}",,,,,,,,,,,,,,,,,,,,
wbbb57a3,survey-text,723395,,100172,"{""Q0"":""try as much as possible to take the right risk to maintain good result""}",,,,,,,,,,,,,,,,,,,,
w2e72bd8,survey-text,799590,,72109,"{""Q0"":""I can increase my chances by clicking on nodes twice""}",,,,,,,,,,,,,,,,,,,,
w2e72bd8,survey-text,980275,,179672,"{""Q0"":""Lesson learnt is that ones needs to check on alternative options before making a decision"",""Q1"":""this strategy might work in financial decisions."",""Q2"":""somewhat similar in terms of decision making.""}",,,,,,,,,,,,,,,,,,,,
w2e72bd8,survey-text,1192196,,210868,"{""Q0"":""I can use what I learned in web of cash to do well in the Travel Agent game by checking on at least 3 cities before making final decision.""}",,,,,,,,,,,,,,,,,,,,
we27899d,survey-text,480948,,34732,"{""Q0"":""Look for the 48 and change it up round to round""}",,,,,,,,,,,,,,,,,,,,
we27899d,survey-text,568421,,86464,"{""Q0"":""Take reasonable chances"",""Q1"":""thinking things through before making a purchase"",""Q2"":""not sure except for careful planning""}",,,,,,,,,,,,,,,,,,,,
we27899d,survey-text,606462,,37036,"{""Q0"":""trial an error""}",,,,,,,,,,,,,,,,,,,,
wce1d392,survey-text,259079,,11352,"{""Q0"":""finding the endpoints with the most value""}",,,,,,,,,,,,,,,,,,,,
wce1d392,survey-text,313257,,53175,"{""Q0"":""it is better to analyze the possible paths with the cost of time rather than making decisions quickly"",""Q1"":""choosing future education goals"",""Q2"":""Education vs entering job market""}",,,,,,,,,,,,,,,,,,,,
wce1d392,survey-text,369169,,54908,"{""Q0"":""find cost of each airport city, and then find shortest path to cheapest one""}",,,,,,,,,,,,,,,,,,,,
w87e95b0,survey-text,296850,,14388,"{""Q0"":""click on one at a time to see a positive dollar amount""}",,,,,,,,,,,,,,,,,,,,
w87e95b0,survey-text,348117,,50256,"{""Q0"":""you need to make good choices by starting out positive"",""Q1"":""i chose a job i liked better than a higher paying one. ultimately the money followed. "",""Q2"":""you can make a good decision and it can continue good or turn bad. you never know. ""}",,,,,,,,,,,,,,,,,,,,
w87e95b0,survey-text,390443,,41303,"{""Q0"":""you can click on a particular city to see the cost and save money. then hopefully continue . ""}",,,,,,,,,,,,,,,,,,,,
w5a6b6e6,survey-text,509957,,32200,"{""Q0"":""Stop looking once you find the green 48. ""}",,,,,,,,,,,,,,,,,,,,
w5a6b6e6,survey-text,654095,,143103,"{""Q0"":""Keep your eyes on the prize. "",""Q1"":""Getting a job I'm not fond of at a university to help pay for my kids' educations. "",""Q2"":""Even though I'm taking hits to my brain as the job is numbing, I can help them through this step in life without them having to pay for it for the next 20 or so years. ""}",,,,,,,,,,,,,,,,,,,,
w5a6b6e6,survey-text,741274,,86167,"{""Q0"":""Maybe find the least expensive flight and then just check the hotel costs to that one place.  If the math is good...head on out. ""}",,,,,,,,,,,,,,,,,,,,
w914448c,survey-text,278351,,11164,"{""Q0"":""clicking on the final node in a path""}",,,,,,,,,,,,,,,,,,,,
w914448c,survey-text,373569,,94203,"{""Q0"":""think about your profits/gains in the long run rather than focusing on only the short-term gains and disregarding other important factors that play into a decision"",""Q1"":""choosing jobs"",""Q2"":""making a decision in the workplace""}",,,,,,,,,,,,,,,,,,,,
wbd519f3,survey-text,695402,,41170,"{""Q0"":""Click on the final spaces""}",,,,,,,,,,,,,,,,,,,,
wbd519f3,survey-text,884069,,187658,"{""Q0"":""concentrate on the end game rather than the first and middle steps"",""Q1"":""in my job, beginning pay is low but through promotions senior pay and benefits make up for that"",""Q2"":""the first and middle landings are all low money positive or negative. it is the final landings that are large sums either positive of negative""}",,,,,,,,,,,,,,,,,,,,
wbd519f3,survey-text,962828,,77734,"{""Q0"":""check the airport prices rather than the other cities""}",,,,,,,,,,,,,,,,,,,,
wca6026b,survey-text,423418,,42241,"{""Q0"":""You want to figure out what the farthest parts of the path are, and if they are a high or low amount.""}",,,,,,,,,,,,,,,,,,,,
wca6026b,survey-text,658896,,234456,"{""Q0"":""Focus on what the consequence is farther down the line."",""Q1"":""Before I made a very important decision, I tried to envision how this decision would affect my future and what the positive or negative repercussions could be."",""Q2"":""In the game, most of the times the highest amounts were set at the very end. So you needed to look ahead to what the path was and know which path led to a positive result. Just like in life, you might have a positive result right away from the decision you made, but it might snowball and turn bad, and keep getting worse.""}",,,,,,,,,,,,,,,,,,,,
wca6026b,survey-text,718774,,58857,"{""Q0"":""I would start by figuring out which hotel is the cheapest in the last city I would stay in before I got to the airport.""}",,,,,,,,,,,,,,,,,,,,
w5ff679d,survey-text,328118,,19831,"{""Q0"":""If you find a 48 then go that way and uncover all of the edges first. ""}",,,,,,,,,,,,,,,,,,,,
w5ff679d,survey-text,382340,,53209,"{""Q0"":""Always do due diligence before setting out on a monetary venture. "",""Q1"":""Investing in the cryptocurrency market"",""Q2"":""It requires me to think""}",,,,,,,,,,,,,,,,,,,,
w5ff679d,survey-text,409883,,26538,"{""Q0"":""Check each node and see which is cheapest first. Then move along and determine which is cheapest. ""}",,,,,,,,,,,,,,,,,,,,
wd074ea8,survey-text,733078,,45209,"{""Q0"":""spend the clicks in the beginning""}",,,,,,,,,,,,,,,,,,,,
wd074ea8,survey-text,793298,,59208,"{""Q0"":"""",""Q1"":"""",""Q2"":""""}",,,,,,,,,,,,,,,,,,,,
wd074ea8,survey-text,896260,,101955,"{""Q0"":""I'm not exactly sure because I did so terribly in the Web of Cash game.""}",,,,,,,,,,,,,,,,,,,,
w6122aea,survey-text,298707,,20786,"{""Q0"":""not really sure, make good short term calls?""}",,,,,,,,,,,,,,,,,,,,
w6122aea,survey-text,375503,,75783,"{""Q0"":""making good decisions in the short term will lead to better things in the long terms"",""Q1"":""isolating during covid will lead to improved outcomes for all and a return to normal life more quickly"",""Q2"":""short term investment for long term good""}",,,,,,,,,,,,,,,,,,,,
w6122aea,survey-text,434160,,57633,"{""Q0"":""find a reasonably cheap hotel first and then move on?""}",,,,,,,,,,,,,,,,,,,,
wfcc035c,survey-text,514041,,8975,"{""Q0"":""Click the last options""}",,,,,,,,,,,,,,,,,,,,
wfcc035c,survey-text,867407,,352359,"{""Q0"":""Long term matters more"",""Q1"":""Not to focus on short term and instead on long-term consequences"",""Q2"":""Efficient choices matter""}",,,,,,,,,,,,,,,,,,,,
wfcc035c,survey-text,886031,,17593,"{""Q0"":""I should be efficient""}",,,,,,,,,,,,,,,,,,,,
w65873ef,survey-text,548031,,16687,"{""Q0"":""I have no idea. That was the most ridiculous thing I have ever done\n""}",,,,,,,,,,,,,,,,,,,,
w65873ef,survey-text,570088,,21040,"{""Q0"":""no lesson learned"",""Q1"":""none"",""Q2"":""nothing""}",,,,,,,,,,,,,,,,,,,,
w65873ef,survey-text,597641,,26546,"{""Q0"":""I wouldn't""}",,,,,,,,,,,,,,,,,,,,
w491b3dd,survey-text,317581,,19066,"{""Q0"":""Always click the furthest away first""}",,,,,,,,,,,,,,,,,,,,
w491b3dd,survey-text,369730,,51144,"{""Q0"":""Plan ahead first and don't just jump right in without planning."",""Q1"":""Preparing for a job"",""Q2"":""I had to put in some time first before getting the prize.""}",,,,,,,,,,,,,,,,,,,,
w491b3dd,survey-text,404446,,33700,"{""Q0"":""I would still check out all of the prices before I planned the trip.""}",,,,,,,,,,,,,,,,,,,,
wcfa0327,survey-text,738822,,27666,"{""Q0"":""Clicking at the end of the trail is the best way to find a good route to go down quickly and cheaply. ""}",,,,,,,,,,,,,,,,,,,,
wcfa0327,survey-text,866789,,126946,"{""Q0"":""Think about end goals rather than stressing about the path to get there. "",""Q1"":""Any goal, I believe, can be seen as thinking about the end rather than worrying about the path to get there. For instance, thinking of a career choice and heading down that career path. You may start out not knowing what it will take to get to the end, but the end is worth it."",""Q2"":""You'll save time and hassle by striving for big end goals.""}",,,,,,,,,,,,,,,,,,,,
wcfa0327,survey-text,942567,,74757,"{""Q0"":""Using fewer clicks is better! Trying to plan by aiming for the end, rather than worrying about middle values should be a goal.""}",,,,,,,,,,,,,,,,,,,,
w9109d11,survey-text,317700,,27840,"{""Q0"":""Focus on long term goals.""}",,,,,,,,,,,,,,,,,,,,
w9109d11,survey-text,419104,,100394,"{""Q0"":""Focus on discovering the direction of the highest payout."",""Q1"":""research high paying jobs before attending university."",""Q2"":""Focus on discovering the highest payout.""}",,,,,,,,,,,,,,,,,,,,
w9109d11,survey-text,528090,,107952,"{""Q0"":""I dont find the situations analogous. In this game every point matters. i the previous game only the end point mattered.""}",,,,,,,,,,,,,,,,,,,,
w9aff8f5,survey-text,356824,,39831,"{""Q0"":""Focus on the last round of clicks (or the long term benefits) because they are the source of faster growth or decline.""}",,,,,,,,,,,,,,,,,,,,
w9aff8f5,survey-text,458379,,100543,"{""Q0"":""Short term fluctuations are going to happen, but don't matter in the long term if you focus on the end result."",""Q1"":""When investing, the market will go up and down from time to time.  But your risk is less if you focus on the end result (for example, retirement)."",""Q2"":""It uses money in the same way, although on a larger and significantly more complex scale.""}",,,,,,,,,,,,,,,,,,,,
w9aff8f5,survey-text,533195,,73802,"{""Q0"":""Find the most efficient route to get to the end goal, whether or not each hotel is the cheapest option.""}",,,,,,,,,,,,,,,,,,,,
we5e5bc6,survey-text,255962,,20658,"{""Q0"":""Look at the long term values since they will be the greatest value.""}",,,,,,,,,,,,,,,,,,,,
we5e5bc6,survey-text,348602,,91630,"{""Q0"":""Look at your long term goals and plan accordingly, not your short term goals."",""Q1"":""I want to lose weight. My short and mid-term goals involved dieting and exercise, which I did not like at first.  I am much happier now for having done this."",""Q2"":""I paid attention to the positive gained by my long term goal instead of negatives along the way""}",,,,,,,,,,,,,,,,,,,,
we5e5bc6,survey-text,465726,,116118,"{""Q0"":""Assuming the final city will be the most expensive, or provide the most benefit, I should look at those.""}",,,,,,,,,,,,,,,,,,,,
w336a0a4,survey-text,502231,,51467,"{""Q0"":""if you click one node and the number seems good take that route before looking at the other""}",,,,,,,,,,,,,,,,,,,,
w336a0a4,survey-text,673827,,170592,"{""Q0"":""try to take the best short term choice"",""Q1"":""an example of using this game in my real life is so apply it to what i want to do for the day"",""Q2"":""it's a very broad situation with many outcomes""}",,,,,,,,,,,,,,,,,,,,
w336a0a4,survey-text,805567,,130738,"{""Q0"":""I might use what I have learned from the Web of Cash game to apply to this game using the first best choice as my choice""}",,,,,,,,,,,,,,,,,,,,
w855476b,survey-text,453886,,27101,"{""Q0"":""You can go with your gut feeling instead of clicking""}",,,,,,,,,,,,,,,,,,,,
w855476b,survey-text,529559,,74669,"{""Q0"":""I learned that effects in the short term aren't as important as the long term effects"",""Q1"":""An example of this is deciding what to do with my career, it matter more in the long term"",""Q2"":""It is similar because it has financial effects in both""}",,,,,,,,,,,,,,,,,,,,
w855476b,survey-text,572813,,42239,"{""Q0"":""I think I will consider not taking the cheapest option from the beginning as it may turn out to be the most expensive""}",,,,,,,,,,,,,,,,,,,,
w9f8a009,survey-text,512291,,18459,"{""Q0"":""Look for patterns""}",,,,,,,,,,,,,,,,,,,,
w9f8a009,survey-text,589314,,76018,"{""Q0"":""That even if you make the logical choice, you're wrong!"",""Q1"":""Investing in the stock market"",""Q2"":""Don't always go with what is most obvious, look deeper.""}",,,,,,,,,,,,,,,,,,,,
w9f8a009,survey-text,662506,,72178,"{""Q0"":""Decide if \""short-cuts\"" to the cost actually cost you more.""}",,,,,,,,,,,,,,,,,,,,
w1a386e1,survey-text,271626,,25276,"{""Q0"":""You can try to think out a plan, only spend a little in order to get a lot.""}",,,,,,,,,,,,,,,,,,,,
w1a386e1,survey-text,361654,,89001,"{""Q0"":""Dont rush through things in your life. Take it slow and think out every move."",""Q1"":""Instead of panicking for a test in school, I should've instead planned out my course of action. Instead of panicking, I should've planned out when and how I would prepare for the test."",""Q2"":""If I rush, then my reward would be less. If I took my time, my reward would be bigger.""}",,,,,,,,,,,,,,,,,,,,
w1a386e1,survey-text,411354,,48677,"{""Q0"":""Do not rush too much, but sometimes it may be more beneficial.""}",,,,,,,,,,,,,,,,,,,,
w0487c80,survey-text,540451,,26096,"{""Q0"":""When you find the best opportunity, stick with it.""}",,,,,,,,,,,,,,,,,,,,
w0487c80,survey-text,659238,,117759,"{""Q0"":""If you have a good opportunity in front of you, don't second guess yourself and go with it."",""Q1"":""I constantly second guess myself in my school tests, and I know I have the best option, but I change my answer and that is how I get most of the answers I choose wrong."",""Q2"":""It is similar to the Web of Cash because in the game, you can't second guess yourself to try and find a better way to do things. ""}",,,,,,,,,,,,,,,,,,,,
w0487c80,survey-text,776552,,116277,"{""Q0"":""Find a hotel with a cheap price and stick to it. Do not try to complicate things by trying to find even better options, just go with the best option you have at the time.""}",,,,,,,,,,,,,,,,,,,,
w189f4f7,survey-text,413998,,24068,"{""Q0"":""spread out clicks""}",,,,,,,,,,,,,,,,,,,,
w189f4f7,survey-text,525500,,110496,"{""Q0"":""the first path is not always the best"",""Q1"":""taking a timely leave of absence from work to corredt a med issue"",""Q2"":""take the path that provides best outcome""}",,,,,,,,,,,,,,,,,,,,
w189f4f7,survey-text,574735,,48221,"{""Q0"":""multiple routes""}",,,,,,,,,,,,,,,,,,,,
wb8b089f,survey-text,285102,,41812,"{""Q0"":""only click on the last circle in the sequence, and follow the route that leads to 48.""}",,,,,,,,,,,,,,,,,,,,
wb8b089f,survey-text,341067,,54947,"{""Q0"":""Always seek whats the most prolific no matter the cost to get there."",""Q1"":""college"",""Q2"":""cost more up front. but will profit alot in the end.""}",,,,,,,,,,,,,,,,,,,,
wb8b089f,survey-text,394682,,52580,"{""Q0"":""figure out which destination is cheapest.""}",,,,,,,,,,,,,,,,,,,,
w3ff93c8,survey-text,986013,,54050,"{""Q0"":""making a random choice""}",,,,,,,,,,,,,,,,,,,,
w3ff93c8,survey-text,1542879,,555855,"{""Q0"":""In this life, one needs to take an initial bold step in solving a problem."",""Q1"":""N/A"",""Q2"":""N/A""}",,,,,,,,,,,,,,,,,,,,
w3ff93c8,survey-text,1855699,,311769,"{""Q0"":""Paying for an expensive route to save time""}",,,,,,,,,,,,,,,,,,,,
wa128c15,survey-text,689009,,26966,"{""Q0"":""click thru a path of three""}",,,,,,,,,,,,,,,,,,,,
wa128c15,survey-text,754718,,64696,"{""Q0"":""better off not playing"",""Q1"":""ask someone a question in a situation that is not too consequential but the question can have good or bad consequences"",""Q2"":""i just answered that""}",,,,,,,,,,,,,,,,,,,,
wa128c15,survey-text,816104,,60365,"{""Q0"":""do a quick check and go""}",,,,,,,,,,,,,,,,,,,,
w9c486bc,survey-text,194152,,12116,"{""Q0"":""I mostly just guess""}",,,,,,,,,,,,,,,,,,,,
w9c486bc,survey-text,230153,,34987,"{""Q0"":""Make good guesses"",""Q1"":""Going with your gut might be good if you feel sick."",""Q2"":""There are different paths you can take.""}",,,,,,,,,,,,,,,,,,,,
w9c486bc,survey-text,340583,,109425,"{""Q0"":""I think I'll go with my gut here too. ""}",,,,,,,,,,,,,,,,,,,,
w2e55922,survey-text,404004,,78407,"{""Q0"":""The ideal strategy here seems to be to check the final nodes first, looking for the highest possible payout, moving closer to the center only when necessary to choose between two otherwise-equal paths. ""}",,,,,,,,,,,,,,,,,,,,
w2e55922,survey-text,630817,,225795,"{""Q0"":""Focus first and foremost on the long-term effects of one's actions: the cost may well be insignificant in light of the gain. "",""Q1"":""The most obvious example would be in something like financial planning for eventual retirement. "",""Q2"":""The end result is to maximize financial rewards over the long term, and various strategies (of budgeting and making investments) offer the same general theme of a short-term cost that leads to a long-term gain. ""}",,,,,,,,,,,,,,,,,,,,
w2e55922,survey-text,1345470,,713645,"{""Q0"":""I would seek to maximize the long-term savings despite the amount of work that would need to be done, but there is a key distinction here: there are no bounds on the cost of the hotel, so the strategy would need to rely first and foremost on finding the shortest path, and then venturing outside it as necessary to see if lengthening the route would possibly reduce the cost and stopping when it becomes clear that it would not. ""}",,,,,,,,,,,,,,,,,,,,
w27e4951,survey-text,268474,,16291,"{""Q0"":""Seems pretty random to me.""}",,,,,,,,,,,,,,,,,,,,
w27e4951,survey-text,389133,,119650,"{""Q0"":""Don't pay attention to the short term, or the long term for that matter. You only know what's about to happen, and what happens after that is unknowable until it happens."",""Q1"":""Stumbling blindly in the dark using only the light of a candle in one room of a building."",""Q2"":""You only can see what's directly around the candle and after that it's kind of a wash.""}",,,,,,,,,,,,,,,,,,,,
w27e4951,survey-text,514807,,124652,"{""Q0"":""I feel like if I were a travel agent, I'd have a general idea of how much it would cost to stay in a city, and baring that, I'd do my job and figure out a good price for my clients, so I don't think web of cash has anything to teach me here.""}",,,,,,,,,,,,,,,,,,,,
w736a60c,survey-text,611279,,69804,"{""Q0"":""There is always risk involved, no matter what seems good at first. A good path is not guaranteed no matter which option seems more appealing.""}",,,,,,,,,,,,,,,,,,,,
w736a60c,survey-text,719922,,107613,"{""Q0"":""Always have a back up plan and save for future mishaps."",""Q1"":""I cannot predict what is behind a path, however, I can save some money by not taking a look into all paths. This can be used when starting a business and how you want to run it."",""Q2"":""In a business, it is important to have money saved just in case any presented business opportunity fails.""}",,,,,,,,,,,,,,,,,,,,
w736a60c,survey-text,796009,,75080,"{""Q0"":""I will not be as quick to jump to decisions.""}",,,,,,,,,,,,,,,,,,,,
w7430c8b,survey-text,354878,,25355,"{""Q0"":""Don't spend cash on clicks, just guess a path""}",,,,,,,,,,,,,,,,,,,,
w7430c8b,survey-text,436498,,80613,"{""Q0"":""Take a path and try it."",""Q1"":""Evaluate with what  you know at the time."",""Q2"":""We don't have knowledge of the future, just do the best we can and reevaluate after taking a step forward.""}",,,,,,,,,,,,,,,,,,,,
w7430c8b,survey-text,716853,,279348,"{""Q0"":""U chose Warpcliff, because coastal destinations are typically more expensive.  Like the Web of Cash, the first choice has been made, after that the second choice is next up, it would be Sandbluff or Freeplains, also not coastal and least expensive, followed by Slowflake, which is the most direct route after that. ""}",,,,,,,,,,,,,,,,,,,,
w52bbc91,survey-text,367718,,25212,"{""Q0"":""Only look at the final stage, as the earlier ones have never had high values""}",,,,,,,,,,,,,,,,,,,,
w52bbc91,survey-text,421053,,52323,"{""Q0"":""I'd describe it in terms of compound interest."",""Q1"":""Index funds"",""Q2"":""Low investment to begin with, high return later""}",,,,,,,,,,,,,,,,,,,,
w52bbc91,survey-text,469685,,47625,"{""Q0"":""Check the shorter routes and the airports themselves""}",,,,,,,,,,,,,,,,,,,,
w40fb1b1,survey-text,1029645,,35045,"{""Q0"":""I need to think more carefully. ""}",,,,,,,,,,,,,,,,,,,,
w40fb1b1,survey-text,1268334,,237676,"{""Q0"":""In every situation we need to think and do our work carefully."",""Q1"":""During my office work days I have to do like that type of work and it is needed to do perfectly. "",""Q2"":""In our every spare of hard time we need to make decision like that.""}",,,,,,,,,,,,,,,,,,,,
w40fb1b1,survey-text,1327261,,57902,"{""Q0"":""I will think carefully to go there in a short time as much I can.""}",,,,,,,,,,,,,,,,,,,,
w5887678,survey-text,776926,,57279,"{""Q0"":""I wasn't able to spend anything on clicks. I would assume it meant if you don't just go on your gut, but do some due diligence, life is much easier.""}",,,,,,,,,,,,,,,,,,,,
w5887678,survey-text,864362,,86420,"{""Q0"":""Find out how to use your clicks!"",""Q1"":""If I were to have done more research into running a business and seek advice BEFORE I started, I would be much more successful by now."",""Q2"":""Put out your \""feelers\"" first before going full swing.""}",,,,,,,,,,,,,,,,,,,,
w5887678,survey-text,925228,,59815,"{""Q0"":""only find prices of every other one""}",,,,,,,,,,,,,,,,,,,,
w8d1983f,survey-text,917731,,598868,"{""Q0"":""I feel as if it just random and just guess""}",,,,,,,,,,,,,,,,,,,,
w8d1983f,survey-text,1284463,,365706,"{""Q0"":""no matter what path you take it is just random"",""Q1"":""usually i make deicisons based on certain outcomes of what i most would like but it never works out like that sometimes. Like when i was dating you never know what to expect and it is just random"",""Q2"":""just like it being random when i used to date. I feel as it is very random""}",,,,,,,,,,,,,,,,,,,,
w8d1983f,survey-text,1316540,,31071,"{""Q0"":""I am just going to try to guess the best i can and hope for the best""}",,,,,,,,,,,,,,,,,,,,
wa9c7387,survey-text,1000933,,46402,"{""Q0"":""click less, pay attention to possible patterns""}",,,,,,,,,,,,,,,,,,,,
wa9c7387,survey-text,1132255,,130300,"{""Q0"":""Read and understand instructions, pay attention"",""Q1"":""When trying to figure out how something works"",""Q2"":""Being present and alert""}",,,,,,,,,,,,,,,,,,,,
wa9c7387,survey-text,1244565,,111305,"{""Q0"":""sorry I am baffled""}",,,,,,,,,,,,,,,,,,,,
w35f33ef,survey-text,378343,,54389,"{""Q0"":""Click on the ending nodes first to see if you're making a long-term gain or not, and go down the path with the biggest long-term gain.""}",,,,,,,,,,,,,,,,,,,,
w35f33ef,survey-text,529537,,150190,"{""Q0"":""Don't focus on the short term, always remember what your end goal is and how beneficial it is to go down the path you are."",""Q1"":""When picking a career and going to college, you may have the short-term and medium-term losses of gaining the necessary education for your preferred profession, but it'll all pay off in the end with the long term goal being much more beneficial than the losses of gaining the required education."",""Q2"":""There's a chance you lose out in the early and mid-term, but the long term success far outweighs the short-term losses.""}",,,,,,,,,,,,,,,,,,,,
w35f33ef,survey-text,663025,,132476,"{""Q0"":""Focus on the destinations and what the cost of a hotel is there, and then plan the rest of the trip accordingly.""}",,,,,,,,,,,,,,,,,,,,
we9f0945,survey-text,549029,,37207,"{""Q0"":""Luck and little experience and knowledge.""}",,,,,,,,,,,,,,,,,,,,
we9f0945,survey-text,725379,,175344,"{""Q0"":""Dont cry for small losses. The great thing is coming ahead."",""Q1"":""I took time to find great job while I was preparing myself. In those time \n I had to bear many things."",""Q2"":""I waited and missed out many things form family & friends but got great thing in my life.""}",,,,,,,,,,,,,,,,,,,,
we9f0945,survey-text,858601,,132201,"{""Q0"":""I must find a cheaper and way to reach my destinations. So I have to spend some money to save more.""}",,,,,,,,,,,,,,,,,,,,
we3411ad,survey-text,375663,,44498,"{""Q0"":""If you uncover a path that is very good, you don't need to spend clicks on the other nodes.""}",,,,,,,,,,,,,,,,,,,,
we3411ad,survey-text,698721,,322050,"{""Q0"":""Try to find out as much information as you can before making a decision.  Also, you have to spend money to make money.  "",""Q1"":""Researching purchases and buying a more expensive item that would work better and last longer than a cheaper one."",""Q2"":""The ability to find information and make decisions that cost money. ""}",,,,,,,,,,,,,,,,,,,,
we3411ad,survey-text,878128,,178403,"{""Q0"":""It is worth finding out information before making a decision, I will probably do the time consuming process to make for a greater reward.  ""}",,,,,,,,,,,,,,,,,,,,
w90b678d,survey-text,329224,,32091,"{""Q0"":""I figure out the end goal and which one is worth the most and usually go there""}",,,,,,,,,,,,,,,,,,,,
w90b678d,survey-text,410384,,80147,"{""Q0"":""You have to spend money to make money. Consider multiple opotions"",""Q1"":""Figuring out how to save the most money"",""Q2"":""I evaluate different options for the best results.""}",,,,,,,,,,,,,,,,,,,,
w90b678d,survey-text,445738,,34291,"{""Q0"":""figure out the most expensive places and avoid them""}",,,,,,,,,,,,,,,,,,,,
wb6a56e8,survey-text,259359,,41378,"{""Q0"":""Look for the value of the final node. You know you'll potentially lose a bit along the way but if your final goal is the highest value, your return will be larger.""}",,,,,,,,,,,,,,,,,,,,
wb6a56e8,survey-text,472973,,212587,"{""Q0"":""Compare your end goal values with the potential losses on the journey there. The road is always bumpy but weighs that against the known advantages of seeing the journey through."",""Q1"":""I'm taking classes right now; this helps to remind me that tough weeks, assignments, and exams are passing but the value of completing my goals will pay off."",""Q2"":""The hard bumps in the road along the way to graduation are like the nodes where you might lose a bt. The accomplishments are potential wins. You can take either but if your road is planned and you can anticipate some bumps, then you will come out on top.""}",,,,,,,,,,,,,,,,,,,,
wb6a56e8,survey-text,565801,,91800,"{""Q0"":""Seeing what the most expensive hotels in the destination cities are as well as 1 to 3 potential stops along the way.""}",,,,,,,,,,,,,,,,,,,,
wa0174ad,survey-text,1386184,,41795,"{""Q0"":""I learned that college education has become some kind of cartoon life which is ironically funny""}",,,,,,,,,,,,,,,,,,,,
wa0174ad,survey-text,1455271,,68065,"{""Q0"":""I see no life lesson in this silly web game"",""Q1"":""I learned to just play along and don't make a big deal about trying to get a few more pennies in a game"",""Q2"":""I don't know how this is similar to Beb of Cash""}",,,,,,,,,,,,,,,,,,,,
wa0174ad,survey-text,1495677,,39377,"{""Q0"":""Just try my best  to get through it with money left at the end.""}",,,,,,,,,,,,,,,,,,,,
w6d18cba,survey-text,565822,,94198,"{""Q0"":""I believe finding the route that leads to 48 always outweighs the short term losses. Find the 48 once and you don't need to spend anymore on clicks.""}",,,,,,,,,,,,,,,,,,,,
w6d18cba,survey-text,736211,,169376,"{""Q0"":""I would tell them that sometimes the short term decisions you make and plan out don't always work at first but long term could always be turned positive."",""Q1"":""When I didn't commit to something fully at first and make a mistake, but you go through with it and turn it into something great."",""Q2"":""Going through school and making a plan for my education, and even though I struggled at first I was able to get through courses.""}",,,,,,,,,,,,,,,,,,,,
w6d18cba,survey-text,1075033,,337809,"{""Q0"":""Avoid the expensive hotels by straying away from them and taking the opposite route.""}",,,,,,,,,,,,,,,,,,,,
waadcf88,survey-text,246009,,13121,"{""Q0"":""click the final nodes""}",,,,,,,,,,,,,,,,,,,,
waadcf88,survey-text,289608,,42594,"{""Q0"":""click the final nodes, go with highest value"",""Q1"":""choose the goals that return the highest value on investment"",""Q2"":""choosing the highest value""}",,,,,,,,,,,,,,,,,,,,
waadcf88,survey-text,332304,,41675,"{""Q0"":""Choosing the destination with the lowest value""}",,,,,,,,,,,,,,,,,,,,
w6e5b201,survey-text,611009,,39162,"{""Q0"":""see the end amounts as the long term gains can offset the short term losses""}",,,,,,,,,,,,,,,,,,,,
w6e5b201,survey-text,666677,,54661,"{""Q0"":""always take the long game"",""Q1"":""observe how you can invest in a stock and reap the benefits of it long term"",""Q2"":""it tells you to look at the long views""}",,,,,,,,,,,,,,,,,,,,
w6e5b201,survey-text,686221,,18541,"{""Q0"":""Take the long view in terms of cost""}",,,,,,,,,,,,,,,,,,,,
w2d024f0,survey-text,265460,,33035,"{""Q0"":""Spread the clicks on different paths until you find the good path""}",,,,,,,,,,,,,,,,,,,,
w2d024f0,survey-text,315323,,48852,"{""Q0"":""Find the goal you want before starting on the path"",""Q1"":""Deciding what line of work I want to switch into"",""Q2"":""I should make small investigative moves to determine the best path before committing fully""}",,,,,,,,,,,,,,,,,,,,
w2d024f0,survey-text,366657,,50329,"{""Q0"":""Find the cheapest hotel route""}",,,,,,,,,,,,,,,,,,,,
wb7d170b,survey-text,381573,,53469,"{""Q0"":""Go for the value of the node that is the middle value. For example if the nodes were -4, -2, and 4, I would go for -2 for the first choice.""}",,,,,,,,,,,,,,,,,,,,
wb7d170b,survey-text,461338,,78720,"{""Q0"":""Don't go for offers that look very good at your first choice"",""Q1"":""Starting small on a project rather than taking the big steps that seem like it would give more payoff"",""Q2"":""I should pick the \""middle\"" value rather than something that looks tempting. Because I might risk more when I pick something tempting at first""}",,,,,,,,,,,,,,,,,,,,
wb7d170b,survey-text,487848,,25486,"{""Q0"":""Start with small steps rather than the bigger ones""}",,,,,,,,,,,,,,,,,,,,
w4a8efa4,survey-text,272634,,29783,"{""Q0"":""Look at the endings to find the best one. Then no matter what the other numbers are you will end up ahead.""}",,,,,,,,,,,,,,,,,,,,
w4a8efa4,survey-text,309839,,36199,"{""Q0"":""Go for the most positive end result."",""Q1"":""Deciding what career path will actually make me happy."",""Q2"":""Deciding what end result means the most to you will ensure that you are happier.""}",,,,,,,,,,,,,,,,,,,,
w4a8efa4,survey-text,360488,,49646,"{""Q0"":""Find the cheapest price at the final city, then work backwards with the least amount of steps.""}",,,,,,,,,,,,,,,,,,,,
wa04a5e4,survey-text,312196,,53650,"{""Q0"":""Click on short term and mid term consequences, and sum those up. Then click on the highest value of those 2, follow that path and if theres a 48, follow that.""}",,,,,,,,,,,,,,,,,,,,
wa04a5e4,survey-text,401984,,88774,"{""Q0"":""Long term values are better than short and mid term."",""Q1"":""Studying for college, where you have to balance short term boosts in exchange for studying for the long term."",""Q2"":""I have to consider where I should place most of my focus on.""}",,,,,,,,,,,,,,,,,,,,
wa04a5e4,survey-text,469416,,66425,"{""Q0"":""Attempt to minimize time needed while maximizing benefit.""}",,,,,,,,,,,,,,,,,,,,
wf6df49a,survey-text,674432,,148322,"{""Q0"":""to think positively and never give up for the way to success.""}",,,,,,,,,,,,,,,,,,,,
wf6df49a,survey-text,964894,,289447,"{""Q0"":""to avoid the negative things. Always think about the positive things."",""Q1"":""Be honest to take the challenges."",""Q2"":""The right ways.""}",,,,,,,,,,,,,,,,,,,,
wf6df49a,survey-text,1140401,,174496,"{""Q0"":""I think about the positive way very quickly.""}",,,,,,,,,,,,,,,,,,,,
wae74f30,survey-text,553472,,184188,"{""Q0"":""to think properly about the way how to gain something.""}",,,,,,,,,,,,,,,,,,,,
wae74f30,survey-text,753516,,199030,"{""Q0"":""Take the positive advice. Ignore the negative things."",""Q1"":""Do any work with courage and keep honesty."",""Q2"":""The truth way of life.""}",,,,,,,,,,,,,,,,,,,,
wae74f30,survey-text,991901,,237373,"{""Q0"":""I want to go quickly in a right way.""}",,,,,,,,,,,,,,,,,,,,
w72e500d,survey-text,483075,,23750,"{""Q0"":""Find the larger numbers at the end of the path first""}",,,,,,,,,,,,,,,,,,,,
w72e500d,survey-text,674262,,190162,"{""Q0"":""Choosing the right path is important. It's not always the way with the biggest number first. Find the larger numbers at the end of the path first."",""Q1"":""I suppose with any goal in the future I may want to obtain, it's important to know where that goal lies. For instance, saving for a new car."",""Q2"":""I'd have to choose the right steps and make good decisions to reach my goal, just like the game. ""}",,,,,,,,,,,,,,,,,,,,
w72e500d,survey-text,835647,,160343,"{""Q0"":""Start by finding the least expensive at the end of the trip. ""}",,,,,,,,,,,,,,,,,,,,
wb9911cf,survey-text,390232,,42392,"{""Q0"":""I have not figured this out yet""}",,,,,,,,,,,,,,,,,,,,
w7ef1fb4,survey-text,920878,,29724,"{""Q0"":""only click on nodes with paths that have green numbers""}",,,,,,,,,,,,,,,,,,,,
w7ef1fb4,survey-text,1041536,,119629,"{""Q0"":""Web of cash represents short, mid, and long term consequences"",""Q1"":""Short term consequences might affect long term consequences"",""Q2"":""Choices made in the game are short, mid, and long-term consequences. ""}",,,,,,,,,,,,,,,,,,,,
w7ef1fb4,survey-text,1194072,,151511,"{""Q0"":""Making stops in cities on the way to the airports will affect the path in later cities""}",,,,,,,,,,,,,,,,,,,,
wd2d7954,survey-text,1077232,,42422,"{""Q0"":""Try to click on the end point to see the value of that rather than focusing on the other spots along the way.""}",,,,,,,,,,,,,,,,,,,,
wd2d7954,survey-text,1222998,,144759,"{""Q0"":""Focus on the bigger picture and where you will get in the end."",""Q1"":""I studied abroad and while the preparation was somewhat difficult (working extra jobs and hours to save up money, the long visa process, etc.), the end result and experience was very gratifying and rewarding."",""Q2"":""In that there were some negative steps in order to get to the bigger reward.""}",,,,,,,,,,,,,,,,,,,,
wd2d7954,survey-text,1483616,,259612,"{""Q0"":""Determine which end point is the most reasonable.""}",,,,,,,,,,,,,,,,,,,,
wbde0bc9,survey-text,313070,,45013,"{""Q0"":""not click on as many once you have a sense of the values of the first one or teo. Move to the first positive amount you find""}",,,,,,,,,,,,,,,,,,,,
wbde0bc9,survey-text,392869,,78795,"{""Q0"":""Check out your options and go for the one with the biggest payoff."",""Q1"":""Changing jobs"",""Q2"":""Making career choices when advancing from one job to the next""}",,,,,,,,,,,,,,,,,,,,
wbde0bc9,survey-text,449969,,56087,"{""Q0"":""check the shortest path to the city. tart with the least expenive hotel""}",,,,,,,,,,,,,,,,,,,,
w42ee50d,survey-text,342081,,25441,"{""Q0"":""Click the node\n""}",,,,,,,,,,,,,,,,,,,,
w42ee50d,survey-text,628719,,285629,"{""Q0"":""First steps impact short term and also impact second step medium term consequences. Further steps impact future consequences."",""Q1"":""Make the correct first steps to act as a bridge to setup medium term steps and rewards, which sets up the the bridge to make good long term decisions for good long time rewards."",""Q2"":""If the first step is negative and is not corrected, then the further steps can also be negative and have negative long term consequences.""}",,,,,,,,,,,,,,,,,,,,
w42ee50d,survey-text,890741,,260994,"{""Q0"":""Find the route that has the least amounts of stops, cities.""}",,,,,,,,,,,,,,,,,,,,
wdcb5cc1,survey-text,337767,,25116,"{""Q0"":""Check the farthest nodes first, because that's where the largest payout is""}",,,,,,,,,,,,,,,,,,,,
wdcb5cc1,survey-text,670819,,332039,"{""Q0"":""It doesn't cost much to consider your future, and the gains will be more substantial than those from merely contemplating your present"",""Q1"":""By choosing to take more intensive courses in high school, I came into college with more credits and will be able to finish in less time. "",""Q2"":""I chose to consider how I could get the biggest payoff from high school later on in life, and by taking the time to do this I'll be able to save a lot of money. If I had only chosen to do what would have benefitted me most in the moment (eg taking fewer classes so I could relax more) I wouldn't have this present benefit""}",,,,,,,,,,,,,,,,,,,,
wdcb5cc1,survey-text,767344,,95499,"{""Q0"":""Perhaps find the least expensive airport city, then work backwards from there...try to take the most direct route""}",,,,,,,,,,,,,,,,,,,,
wca69adf,survey-text,594944,,44272,"{""Q0"":""I have learned that it is important to think about long term solutions, rather than just what will immediately make me feel good.""}",,,,,,,,,,,,,,,,,,,,
wca69adf,survey-text,779036,,183036,"{""Q0"":""I would describe it as a metaphor for decision-making. Specifically, how it is important to think about long-term goals."",""Q1"":""A good example would be taking the time to further education, work a job that you may not enjoy, or exercise and eating right to promote healthy living."",""Q2"":""This situation is similar because going to school can result in a higher-paying career.""}",,,,,,,,,,,,,,,,,,,,
wca69adf,survey-text,845648,,65553,"{""Q0"":""I would focus on the final price point, assuring that the client wastes as little time as possible.""}",,,,,,,,,,,,,,,,,,,,
wd537979,survey-text,390413,,91401,"{""Q0"":""Just click on the end noes to see what they hold""}",,,,,,,,,,,,,,,,,,,,
wd537979,survey-text,476494,,85065,"{""Q0"":""try to plan ahead and so that you can find your best options"",""Q1"":""When buying a home you have to consider a lot of factors since it will be a long time purchase"",""Q2"":""It is similar cause making the right decision will pay off in the end""}",,,,,,,,,,,,,,,,,,,,
wd537979,survey-text,515922,,38424,"{""Q0"":""I think that spending a little to learn more about the routes will pay off in the end""}",,,,,,,,,,,,,,,,,,,,
wa8c35b7,survey-text,635284,,122175,"{""Q0"":""Knowing in advance that they other side of the negative value is the positive value, and knowing the web nodes change in value between tries, eliminates the number of samples needed.""}",,,,,,,,,,,,,,,,,,,,
wa8c35b7,survey-text,845315,,209001,"{""Q0"":""By focusing on the end objective, you can move towards it without worrying about what is going on in the in between nodes."",""Q1"":""Retirement - you know the end amount you are trying to achieve, so if things go up and down on the journey, as long as you're still moving towards the end goal, you're good."",""Q2"":""Your investments are gaining and losing value on the way to a goal. If it looks like the end goal is reachable, the in between deviations shouldn't matter.""}",,,,,,,,,,,,,,,,,,,,
wa8c35b7,survey-text,968921,,122577,"{""Q0"":""You can test the end cost at each airport first and then eliminate the intervening hotels backwards from the least expensive airport.""}",,,,,,,,,,,,,,,,,,,,
w2f80bc6,survey-text,603416,,49219,"{""Q0"":""i have learn not to give up no matter the situation or circumstances""}",,,,,,,,,,,,,,,,,,,,
w2f80bc6,survey-text,765794,,161361,"{""Q0"":""never give up"",""Q1"":""you can be rich today and be broke tomorrow "",""Q2"":""things can change anytime.""}",,,,,,,,,,,,,,,,,,,,
w2f80bc6,survey-text,834780,,67981,"{""Q0"":""perfectly well and understandable ""}",,,,,,,,,,,,,,,,,,,,
wa0e76b3,survey-text,546883,,45170,"{""Q0"":""Click the outer-most circles first, so you can figure out the long-term consequences of your decision.""}",,,,,,,,,,,,,,,,,,,,
wa0e76b3,survey-text,885593,,337696,"{""Q0"":""Think of the long-term and medium-term consequences of your decisions instead of only prioritizing the short-term."",""Q1"":""Deciding on whether to spend more time learning a programming language instead of watching TV or surfing the web."",""Q2"":""One choice, watching TV or browsing the web, could give me more short-term satisfaction and small gains. However, later on, it could lead to either very small gains or possibly big losses. \n\nThe other choice of learning a programming language has a short-term loss. However, over time it can lead to very large gains over my first option.""}",,,,,,,,,,,,,,,,,,,,
wa0e76b3,survey-text,1524263,,637607,"{""Q0"":""Find the price of the cheapest hotel in each of the airports first. Then, find the cheapest hotel price for the city that connects directly to the airport city, since each airport city has only one connecting city. Then, keep in mind the prices for the cheapest hotel stays in each of those 6 cities. Add the price of the airport city hotel to the connecting city for the airport hotel and see which destination is cheapest.\n\nChoose the airport city that results in the lowest sum of the airport city and second to last city hotel prices.""}",,,,,,,,,,,,,,,,,,,,
w18feba6,survey-text,869048,,89073,"{""Q0"":""I can pay better attention to the strategies that I used before to implement more cash in my account""}",,,,,,,,,,,,,,,,,,,,
w18feba6,survey-text,1046230,,176172,"{""Q0"":""I would describe it as a tricky game that requires 100% focus and attention."",""Q1"":""Choosing a college was a similar strategy to playing this game.  I felt like there was always a decision to go left or right"",""Q2"":""It is similar because going left or right in my decisions can produce wildly different results""}",,,,,,,,,,,,,,,,,,,,
w18feba6,survey-text,1084708,,37452,"{""Q0"":""I would use the strategy of guessing the more popular route in order to succeed at the travel agent game""}",,,,,,,,,,,,,,,,,,,,
w47fc9d0,survey-text,823247,,66929,"{""Q0"":""250""}",,,,,,,,,,,,,,,,,,,,
w47fc9d0,survey-text,906430,,82161,"{""Q0"":""Yes"",""Q1"":""Yes"",""Q2"":""I like it""}",,,,,,,,,,,,,,,,,,,,
w47fc9d0,survey-text,938126,,30669,"{""Q0"":""Yes""}",,,,,,,,,,,,,,,,,,,,
wcc24aa6,survey-text,240872,,34089,"{""Q0"":""I think you can reveal the short term gains to guide you towards long term gains. If you find a good path, it might not be necessary to reveal all paths.""}",,,,,,,,,,,,,,,,,,,,
wcc24aa6,survey-text,294352,,52456,"{""Q0"":""I would say that long term gains are more worthwhile than short term gains."",""Q1"":""Saving now can cause me to benefit later."",""Q2"":""Having to go through short term loss to get to the long term gain.""}",,,,,,,,,,,,,,,,,,,,
wcc24aa6,survey-text,337810,,42453,"{""Q0"":""Maybe check the cost in the first cities and then move on from there?""}",,,,,,,,,,,,,,,,,,,,
wd823110,survey-text,759762,,135519,"{""Q0"":""I was to able find the good path better toward the middle of the game by avoiding the side with the largest negative amounts.  As I gained more cash it was worth inspecting every node. ""}",,,,,,,,,,,,,,,,,,,,
wd823110,survey-text,907530,,146705,"{""Q0"":""when you have a little money, you have to take big risks.  When you are comfortable with you savings you can take less risk. "",""Q1"":""stock market.  gambling. "",""Q2"":""if I know more information about a particular stock, or more information about a sports team, I know how to increase my odds of being successful.""}",,,,,,,,,,,,,,,,,,,,
wd823110,survey-text,987718,,79178,"{""Q0"":""pick the lowest prices first. ""}",,,,,,,,,,,,,,,,,,,,
w5734769,survey-text,1304539,,27672,"{""Q0"":""I can think about the best course of action and use odds to find the right area. Once I find one I like, I just go for it.""}",,,,,,,,,,,,,,,,,,,,
w5734769,survey-text,1361528,,55972,"{""Q0"":""I would say explore your options and be smart about how you're spending your resources."",""Q1"":""If I'm at work and can choose how to tackle a project in different ways, trying to look ahead to see what would be more beneficial would help me."",""Q2"":""It allows a peak ahead and shows the end result before the steps.""}",,,,,,,,,,,,,,,,,,,,
w5734769,survey-text,1399203,,36607,"{""Q0"":""I would need to be smart about where I'm clicking and learning about and not just go crazy.""}",,,,,,,,,,,,,,,,,,,,
w84ee0b1,survey-text,431448,,27949,"{""Q0"":""Look at the long term""}",,,,,,,,,,,,,,,,,,,,
w84ee0b1,survey-text,505371,,72917,"{""Q0"":""Your short term setbacks is nothing compared to the long term reward"",""Q1"":""When you get a no that means you'll get a bigger yes"",""Q2"":""The negative amounts can lead you to a larger positive amount""}",,,,,,,,,,,,,,,,,,,,
w84ee0b1,survey-text,540945,,34569,"{""Q0"":""look at the final destination first""}",,,,,,,,,,,,,,,,,,,,
wf7fe178,survey-text,426752,,31586,"{""Q0"":""Click the ends and stop clicking when you find a circle with the maximum amount of cash""}",,,,,,,,,,,,,,,,,,,,
wf7fe178,survey-text,511010,,83225,"{""Q0"":""Always weigh risk vs reward."",""Q1"":""Any kind of investments, from stocks to entering contests."",""Q2"":""You have to pay and risk your money for what you hope is a larger reward.""}",,,,,,,,,,,,,,,,,,,,
wf7fe178,survey-text,603664,,91611,"{""Q0"":""I can potentially find the airport with the cheapest flights and end up with the cheapest journey by taking almost any route.""}",,,,,,,,,,,,,,,,,,,,
wf07fb23,survey-text,1076185,,72457,"{""Q0"":""I have learned from playing this that it is useful to walk in the right path without going in the wrong direction and a very important mind can be a very big problem I think.""}",,,,,,,,,,,,,,,,,,,,
wf07fb23,survey-text,1368637,,291433,"{""Q0"":""I have learned that the right method is to understand and catch by thinking"",""Q1"":""One of the strategies I have taken from my life is that I first gave him some money to choose my best friend and then I saw how he did it."",""Q2"":""In this case, it is similar to the cash game, for example, if you click on the wrong game in the cash game, the money is not available\nSimilarly, it would be wrong to think of a friend as a friend of life""}",,,,,,,,,,,,,,,,,,,,
wf07fb23,survey-text,1503534,,133864,"{""Q0"":""Learning Flame from Cash Games I can use it in a very nice way in travel games like choosing the easy way to choose the glass road and get to the destination easily.""}",,,,,,,,,,,,,,,,,,,,
w5f6c419,survey-text,468312,,23799,"{""Q0"":""I think I can choose to spend on a click and if it is 48, go towards that rather than spend more on clicks.""}",,,,,,,,,,,,,,,,,,,,
w5f6c419,survey-text,509671,,40312,"{""Q0"":""You can consider there will be ups and downs but overall but moving forward, you tend to do better. "",""Q1"":""I am thinking about investing and how the market can go up and down. "",""Q2"":""Finances can fluctuate and there are different paths you can take""}",,,,,,,,,,,,,,,,,,,,
w5f6c419,survey-text,553965,,43284,"{""Q0"":""I can determine which path would be the fewest number of hotels by starting with the further one away then consider working backwards""}",,,,,,,,,,,,,,,,,,,,
w0f8aaab,survey-text,307964,,31426,"{""Q0"":""Nothing? I don't think I learned anything. ""}",,,,,,,,,,,,,,,,,,,,
w0f8aaab,survey-text,437991,,129013,"{""Q0"":""Take on lower risk activities and, as they develop, be more careful about how you navigate your choices? "",""Q1"":""I don't know. Most of my problems stem from bad luck and events that were out of my control. My sole income is taking surveys right now, so I don't have much going for me in life to have any examples. "",""Q2"":""N/A""}",,,,,,,,,,,,,,,,,,,,
w0f8aaab,survey-text,532304,,93288,"{""Q0"":""Proceed with the shortest path of 2 stops, then price check the last one for hotels?""}",,,,,,,,,,,,,,,,,,,,
w6cda845,survey-text,628414,,42660,"{""Q0"":""Spend your clicks on looking further into the future since the first step could look good but could lead to bad outcomes""}",,,,,,,,,,,,,,,,,,,,
w6cda845,survey-text,738996,,109578,"{""Q0"":""Don't base your decisions entirely based on what looks like the best option in the short term. Sometimes something that might look less desirable leads to something better and vice versa."",""Q1"":""Deciding a career choice based on long term outcomes rather than something like how much schooling it will take."",""Q2"":""There are both short and long term benefits and costs to consider""}",,,,,,,,,,,,,,,,,,,,
w6cda845,survey-text,800208,,60208,"{""Q0"":""look at the price of the later dots rather than just the immediate one""}",,,,,,,,,,,,,,,,,,,,
w06c7293,survey-text,411981,,50223,"{""Q0"":""Because the +48 value was at least 2x bigger than other final options, it is almost always best o seek out that value. Therefore, one just needs to click the final options to decide which path to take.""}",,,,,,,,,,,,,,,,,,,,
w06c7293,survey-text,486517,,73514,"{""Q0"":""I think it is a good lesson to look at things in the longterm and ignore smaller fluctuations in short term results."",""Q1"":""Choosing a career that has growth potential vs a career that may pay more starting out."",""Q2"":""While sometimes the first option had higher values, it could put you on a path that would keep you from ultimately making the most money.""}",,,,,,,,,,,,,,,,,,,,
w06c7293,survey-text,556860,,69334,"{""Q0"":""Find the point that has the fewest stops between current location and desired destination.""}",,,,,,,,,,,,,,,,,,,,
w6f4539f,survey-text,309909,,20507,"{""Q0"":""Click first and pick the highest number then luck from there.""}",,,,,,,,,,,,,,,,,,,,
w6f4539f,survey-text,375848,,64936,"{""Q0"":""Search around you for immediate options then maximize them based on the best initial deicion."",""Q1"":""Playing poker. Play decent cards then go all in."",""Q2"":""Making smart decisions early on and then trying to maximize the opportunity. ""}",,,,,,,,,,,,,,,,,,,,
w6f4539f,survey-text,411452,,34590,"{""Q0"":""Make safest decisions first, then extend it.""}",,,,,,,,,,,,,,,,,,,,
w09cd2f1,survey-text,722086,,17997,"{""Q0"":""Only click the first nodes in front of me""}",,,,,,,,,,,,,,,,,,,,
w09cd2f1,survey-text,858163,,135068,"{""Q0"":""I would say that life is full of mysteries and some may be good or some may be bad. Sometimes you have to take the risk of going into the great unknown"",""Q1"":""Taking chances with things like a promotion at work or trying something I've never done before. "",""Q2"":""With web of cash, you never know what you're gonna get so trying something that I was once afraid to do is like it. You sometimes have to take risks and gamble whether something is going to be a good experience or not,""}",,,,,,,,,,,,,,,,,,,,
w09cd2f1,survey-text,934637,,75433,"{""Q0"":""I can take risks to try and find something inexpensive""}",,,,,,,,,,,,,,,,,,,,
w3b6f643,survey-text,417510,,10967,"{""Q0"":""Finding the +48""}",,,,,,,,,,,,,,,,,,,,
w3b6f643,survey-text,466934,,48421,"{""Q0"":""Aim for the big goal at the end."",""Q1"":""Don't focus on short term losses as long as your long term direction is good."",""Q2"":""There are bumps in the road but don't be deterred.""}",,,,,,,,,,,,,,,,,,,,
w3b6f643,survey-text,493186,,25249,"{""Q0"":""Click on the final points.""}",,,,,,,,,,,,,,,,,,,,
wfab675d,survey-text,436578,,69649,"{""Q0"":""I think I wasted too many clicks by moving around to different webs instead of seeing one through.  I also, got a little greedy by clicking more to see if could do better on a different path.""}",,,,,,,,,,,,,,,,,,,,
wfab675d,survey-text,524455,,86817,"{""Q0"":""Researching and planning ahead is the key.  These don't necessarily have monetary consequences in real life."",""Q1"":""Planning ahead for every contingency is something I usually do in most aspects of my life."",""Q2"":""Same reasons as above.""}",,,,,,,,,,,,,,,,,,,,
wfab675d,survey-text,621944,,96472,"{""Q0"":""Follow one path at a time and find alternate routes if necessary.""}",,,,,,,,,,,,,,,,,,,,
wdf1f90b,survey-text,389366,,24119,"{""Q0"":""It was a metaphor for life and how there are three kinds of consequences you can run in to.""}",,,,,,,,,,,,,,,,,,,,
wdf1f90b,survey-text,747952,,357569,"{""Q0"":""It's a metaphor for life and how every decision you make can have various different consequences."",""Q1"":""I don't know, to be more careful of every decision I make."",""Q2"":""Everything does have consequences that range.""}",,,,,,,,,,,,,,,,,,,,
wdf1f90b,survey-text,999550,,250537,"{""Q0"":""You can weigh how much each decision will cost or benefit you and make gut decisions and know you'll be harmed for making some choices.""}",,,,,,,,,,,,,,,,,,,,
wa7baa9f,survey-text,270968,,22786,"{""Q0"":""Click the options suggested by the game""}",,,,,,,,,,,,,,,,,,,,
wa7baa9f,survey-text,347741,,75764,"{""Q0"":""Sometimes it costs money to make a lot more money."",""Q1"":""You have to invest in yourself by spending money on going to college which down the line in the long term you will make back and a lot more."",""Q2"":""That some of the beginning of the paths are negative but in the end lead to positive. ""}",,,,,,,,,,,,,,,,,,,,
wa7baa9f,survey-text,443802,,95033,"{""Q0"":""Find the cheapest beginning and ending cities of the route and compare to the alternative choices.""}",,,,,,,,,,,,,,,,,,,,
wc4fbeff,survey-text,190411,,33363,"{""Q0"":""i focused mainly on the nodes at the edges""}",,,,,,,,,,,,,,,,,,,,
wc4fbeff,survey-text,272207,,80767,"{""Q0"":""It would take time but in the end it would make sense if only you do not quit"",""Q1"":""Career"",""Q2"":""It's been a tough path""}",,,,,,,,,,,,,,,,,,,,
wc4fbeff,survey-text,313052,,39716,"{""Q0"":""I would focus more on traveling through the cheap routes""}",,,,,,,,,,,,,,,,,,,,
w27cdb19,survey-text,324914,,23721,"{""Q0"":""Click on the furthest nodes to see where the highest value ($48) is and follow that path.""}",,,,,,,,,,,,,,,,,,,,
w27cdb19,survey-text,404070,,78142,"{""Q0"":""Being smart about decisions early on in your life can result in much success later in life."",""Q1"":""When deciding where I should live during college, I can look at how much money the end goal would cost compared to how much each tiny step costs."",""Q2"":""I am comparing the end result to the steps along the way, such as paying monthly rent or semester rent versus yearly rent.""}",,,,,,,,,,,,,,,,,,,,
w27cdb19,survey-text,481757,,76620,"{""Q0"":""See what the final cost of the airports are and go toward the cheapest one with stopping at the fewest number of hotels as possible.""}",,,,,,,,,,,,,,,,,,,,
w8994157,survey-text,488054,,46525,"{""Q0"":""Two strategies, one is to look for patterns and guess, and 2 is to just accept a decent looking strategy, even if one is slightly more optimal. It would also be more expensive.""}",,,,,,,,,,,,,,,,,,,,
w8994157,survey-text,551706,,62599,"{""Q0"":""Take a breathe, don't rush in and don't assume."",""Q1"":""When I was in a meeting and I just blurted out something, not thinking of longer term who and how it might affect others or myself."",""Q2"":""Both require taking a breath, doing some research, and making informed choices.""}",,,,,,,,,,,,,,,,,,,,
w8994157,survey-text,591689,,38972,"{""Q0"":""Same thing, balancing research costs with optimal versus most optimal cost efficiencies. ""}",,,,,,,,,,,,,,,,,,,,
w7878332,survey-text,268486,,42485,"{""Q0"":""You could click on the nodes that you end up on to see the potential biggest value.""}",,,,,,,,,,,,,,,,,,,,
w7878332,survey-text,442429,,172936,"{""Q0"":""If you plan ahead and think in the long term you could end up with more success."",""Q1"":""If you are earning a certain amount of money each week, looking at what you end up with at the end of a month may be more encouraging."",""Q2"":""It is similar in terms of looking ahead at what you would make in the end as opposed to what you make at each node.""}",,,,,,,,,,,,,,,,,,,,
w7878332,survey-text,509304,,65871,"{""Q0"":""You could look at the cost of each individual city and see how much you end up with by the end of the trip.""}",,,,,,,,,,,,,,,,,,,,
wbed83f9,survey-text,2371175,,20094,"{""Q0"":""Basically, believing in my decisions""}",,,,,,,,,,,,,,,,,,,,
wbed83f9,survey-text,2399438,,27249,"{""Q0"":""I would say i learnt to go with my heart"",""Q1"":"""",""Q2"":""""}",,,,,,,,,,,,,,,,,,,,
wbed83f9,survey-text,2466632,,66188,"{""Q0"":""I would make decisive and fast decisions with the knowledge from webcash.""}",,,,,,,,,,,,,,,,,,,,
w6562141,survey-text,624601,,115136,"{""Q0"":""If I find a positive amount of cash along the way and the maximum($48) in the end, I can choose that path for sure.  ""}",,,,,,,,,,,,,,,,,,,,
w6562141,survey-text,990376,,364700,"{""Q0"":""Compare possible scenarios one by one and choose the best one, and then forecast how things will proceed after. "",""Q1"":""When choosing a house, compare monthly payment plus tax and HOA, etc. "",""Q2"":""At first, things might seem hard to decide, but if I look into the plus and minus, I'll be able to come up with the best choice. ""}",,,,,,,,,,,,,,,,,,,,
w6562141,survey-text,1149826,,158378,"{""Q0"":""Reveal the price for the closest routes and proceed one by one from that point. Also, avoid routes with more cities. ""}",,,,,,,,,,,,,,,,,,,,
w303ca15,survey-text,1981583,,32502,"{""Q0"":""Basically performing thoughtful decisons.""}",,,,,,,,,,,,,,,,,,,,
w303ca15,survey-text,2032447,,49845,"{""Q0"":""I would say it taught me to think about decisions before deciding"",""Q1"":"""",""Q2"":""""}",,,,,,,,,,,,,,,,,,,,
w303ca15,survey-text,2040468,,6965,"{""Q0"":""""}",,,,,,,,,,,,,,,,,,,,
w4287650,survey-text,272795,,24582,"{""Q0"":""Focus on finding the biggest reward by clicking on the endpoints instead of the path to get there.""}",,,,,,,,,,,,,,,,,,,,
w4287650,survey-text,325119,,51308,"{""Q0"":""Focus on the end goals not the steps to get there"",""Q1"":""Focus on retiring with millions of dollars not the $10 per week it costs to invest"",""Q2"":""Little decisions can add up to drastic life changes""}",,,,,,,,,,,,,,,,,,,,
w4287650,survey-text,389018,,62832,"{""Q0"":""Work backwards. Start by clicking on the towns that are the closest to the airports""}",,,,,,,,,,,,,,,,,,,,
w7425c1c,survey-text,1017004,,24613,"{""Q0"":""try level best""}",,,,,,,,,,,,,,,,,,,,
w7425c1c,survey-text,1166727,,148710,"{""Q0"":""it's all about taking the right step."",""Q1"":""in terms of learning the right skills to be successful at work and in turn in life."",""Q2"":""You have to make decisions.""}",,,,,,,,,,,,,,,,,,,,
w7425c1c,survey-text,1297983,,130213,"{""Q0"":""go for the quickest route with least number of cities on the route to destination.""}",,,,,,,,,,,,,,,,,,,,
w15ad6e8,survey-text,391072,,72182,"{""Q0"":""Look at what the end path is. If it is high it may be worth sacrificing short term gains for long term wealth/happiness.""}",,,,,,,,,,,,,,,,,,,,
w15ad6e8,survey-text,545245,,153144,"{""Q0"":""It's important to look at the big picture. What's the end goal? Is it worth short term sacrifice for long term reward?"",""Q1"":""I finished an Ironman triathlon. I lost time with family and friends while training, but the end result of completing the race in only 11:22hrs was worth the sacrifice."",""Q2"":""the end node showed how good or bad those short term decisions were going to be.""}",,,,,,,,,,,,,,,,,,,,
w15ad6e8,survey-text,683395,,137128,"{""Q0"":""Find one of the further away hotels price first and plan a route towards that hotel. Avoid the most expensive.""}",,,,,,,,,,,,,,,,,,,,
wc523bcb,survey-text,387717,,44657,"{""Q0"":""Reveal the end nodes first to see if it is worth moving in that direction.""}",,,,,,,,,,,,,,,,,,,,
wc523bcb,survey-text,535306,,146584,"{""Q0"":""Short term investment is more wisely invested on positive outcomes in the long run."",""Q1"":""Deciding to get up and work today will be more beneficial to me than what I really want to do, which is sit and play scrabble."",""Q2"":""By doing what I want to do in the immediate term, I lose out in the mid and long terms.""}",,,,,,,,,,,,,,,,,,,,
wc523bcb,survey-text,620655,,84343,"{""Q0"":""Find if there is a big difference in flight cost from different airports; this could outweigh the differences in cost for hotels.""}",,,,,,,,,,,,,,,,,,,,
wf8443d9,survey-text,423255,,44722,"{""Q0"":""click on the farthest node first to find the paths with the highest potential payoff""}",,,,,,,,,,,,,,,,,,,,
wf8443d9,survey-text,521475,,97213,"{""Q0"":""Focus on long term goals and benefits and not so much on the short term costs or consequences of decisions in your life."",""Q1"":""Investing more money now to have a higher amount of money saved in the future."",""Q2"":""The web of cash game has some potential risk in the nearer nodes that may seem negative but lead to higher payoff in the farthest nodes.""}",,,,,,,,,,,,,,,,,,,,
wf8443d9,survey-text,646474,,123965,"{""Q0"":""Prioritize routes with fewest amount of cities.""}",,,,,,,,,,,,,,,,,,,,
w6bfc39c,survey-text,819126,,15439,"{""Q0"":""Be as quick and decisive as possible. ""}",,,,,,,,,,,,,,,,,,,,
w6bfc39c,survey-text,899996,,79855,"{""Q0"":""You have to take blinds risks sometimes as well as be decisive. "",""Q1"":""I moved to a new city to pursue a job not knowing anyone in that city. It worked out great."",""Q2"":""I pretty much go in blind. ""}",,,,,,,,,,,,,,,,,,,,
w6bfc39c,survey-text,961510,,60501,"{""Q0"":""You are taking risks in the interest of time. I'd employ the quick and decisive strategy here. ""}",,,,,,,,,,,,,,,,,,,,
wc312caf,survey-text,407576,,53389,"{""Q0"":""Take the path with the most reward ""}",,,,,,,,,,,,,,,,,,,,
wc312caf,survey-text,491195,,82606,"{""Q0"":""Aim high and work your way thru with short steps along the way"",""Q1"":""Moving up positions in ones career trajectory"",""Q2"":""Goal is to earn money""}",,,,,,,,,,,,,,,,,,,,
wc312caf,survey-text,563897,,71694,"{""Q0"":""Not sure how I would apply it in this situation ""}",,,,,,,,,,,,,,,,,,,,
wdc315a2,survey-text,307168,,54993,"{""Q0"":""Not clicking on a node to reveal value every single time, sometimes just taking a guess.""}",,,,,,,,,,,,,,,,,,,,
wdc315a2,survey-text,517501,,209290,"{""Q0"":""Life is a gamble even when you have early indication that an action will be fruitful. It may or not remain that way for the long-term as you take more and more actions. You can only make the best decision you can make at a given time."",""Q1"":""Choosing one job or occupation versus another. In reality, you generally have to make an educated guess about what job will meet your goals and be fulfilling personally.  It may turn out that this is the case long-term, or it may not."",""Q2"":""Web of Cash is similar to choosing an occupation in that you have to commit to a plan of action for a job (education, training, etc) based upon the best information you have at the time, but it is impossible to know for certain that the future will be fruitful. It depends upon factors over which you may have no control and cannot be aware.""}",,,,,,,,,,,,,,,,,,,,
wdc315a2,survey-text,606939,,88402,"{""Q0"":""You might consider which hotels have been historically the least expensive in the past and use them for this trip.""}",,,,,,,,,,,,,,,,,,,,
wb32a901,survey-text,304222,,19456,"{""Q0"":""Looking at both short term and long term nodes""}",,,,,,,,,,,,,,,,,,,,
wb32a901,survey-text,388871,,83619,"{""Q0"":""It's good to have short term plans, but you need to take into consideration long term outcomes as well."",""Q1"":""I think perhaps the decision to spend or save money."",""Q2"":""You can get short term gain now when you buy something you don't need, but long term it may not be best?""}",,,,,,,,,,,,,,,,,,,,
wb32a901,survey-text,451306,,61429,"{""Q0"":""Check at least starting and ending prices""}",,,,,,,,,,,,,,,,,,,,
wd228513,survey-text,455395,,60870,"{""Q0"":""Focus on the end game""}",,,,,,,,,,,,,,,,,,,,
wd228513,survey-text,837520,,381117,"{""Q0"":""It teaches you that the short term payoffs do not always result in the highest reward at the end."",""Q1"":""Personal financial decisions, such as paying off loans at an advanced rate vs making minimum payments."",""Q2"":""Making higher loan payments costs you more initially, but over the life of the loan will save you much more money in interest.""}",,,,,,,,,,,,,,,,,,,,
wd228513,survey-text,1031816,,193265,"{""Q0"":""Find out the cheapest city of the 3 that have an airport and then choose the route with the least stops on the way there.""}",,,,,,,,,,,,,,,,,,,,
w226e976,survey-text,347339,,41974,"{""Q0"":""Examine all of the paths to be able to make a decision that is going to net you the most amount. ""}",,,,,,,,,,,,,,,,,,,,
w226e976,survey-text,398523,,50182,"{""Q0"":""You may take some minor losses to start with but it could lead to a larger net payoff. "",""Q1"":""Starting a business or investing. "",""Q2"":""It may cost a small amount of current money to research and explore but the long term value would pay back. ""}",,,,,,,,,,,,,,,,,,,,
w226e976,survey-text,464861,,65324,"{""Q0"":""Look at the starting and ending prices to make a good assumption of where the most inexpensive route would be""}",,,,,,,,,,,,,,,,,,,,
wdacb8dc,survey-text,387445,,92530,"{""Q0"":""I usually look and see which of the paths start out in the positive and go down that path. It seems to come out ok in the end. I'm unable to come up with a better way.""}",,,,,,,,,,,,,,,,,,,,
wdacb8dc,survey-text,892731,,504223,"{""Q0"":""To try to not worry too much about the unknown, just use what you know and your intuition to navigate the best path you can that has the least amount of loss/negative consequences."",""Q1"":""The decision to save up my money and move away from my family to get away from their toxic behavior and have a normal happy life."",""Q2"":""I don't know what's going to happen and I need to be smart about the steps I'm going to take and will have to rely on my instincts and make smart moves.""}",,,,,,,,,,,,,,,,,,,,
wdacb8dc,survey-text,1329473,,435695,"{""Q0"":""I would only check out the prices of the hotels in the middle of the country, as I'm sure the prices of the hotels in the cities closer to the coasts would be more expensive. So I'd only check prices in Warpcliff, Sandbluff and Freeplains.""}",,,,,,,,,,,,,,,,,,,,
w68e87c8,survey-text,305974,,15139,"{""Q0"":""Start by clicking on the furthest dots""}",,,,,,,,,,,,,,,,,,,,
w68e87c8,survey-text,380590,,73612,"{""Q0"":""Plan for your farthest out goals fisrt and figure out how to get there"",""Q1"":""Planning for retirement"",""Q2"":""When saving for retirement, I should look at the long term to see when I want to retire and how much I need to save to get there""}",,,,,,,,,,,,,,,,,,,,
w68e87c8,survey-text,428206,,46603,"{""Q0"":""Start by looking at the end points first""}",,,,,,,,,,,,,,,,,,,,
w74058b1,survey-text,424166,,36099,"{""Q0"":""I can take more time to consider the consequences before making a decision. Sometimes the cost of clicks is worth more in the long run.""}",,,,,,,,,,,,,,,,,,,,
w74058b1,survey-text,527330,,102141,"{""Q0"":""I would tell a friend that when you explore the outcome of a decision beforehand and really think about the consequences, you are more likely to reap the rewards of that decision."",""Q1"":""As I am thinking about purchasing a car, I need to think about all of the financial difficulties that could come with that. I also need to consider the pros. "",""Q2"":""There is a chance of loss, but also the possibility to gain.""}",,,,,,,,,,,,,,,,,,,,
w74058b1,survey-text,627993,,99615,"{""Q0"":""Prior to deciding on a route, I would begin by checking the hotel prices at each of the first stops on each route. From there, I would determine which route would be the least expensive if I were to continue it.""}",,,,,,,,,,,,,,,,,,,,
w5446edc,survey-text,417416,,51640,"{""Q0"":""click on the end nodes for the best chance to earn the most money. Stop clicking on nodes once the $48 is revealed.""}",,,,,,,,,,,,,,,,,,,,
w5446edc,survey-text,534634,,116202,"{""Q0"":""Always look ahead at the potential consequences and the end game before making your first move."",""Q1"":""I am starting a BBQ business from scratch. It requires a lot of forward thinking and determining outcomes based on decisions. I have had to decide what my end game is and the best path to get there."",""Q2"":""As in real life, determine where you want to go and plot the best course to get there.""}",,,,,,,,,,,,,,,,,,,,
w5446edc,survey-text,696015,,160362,"{""Q0"":""I would take a look at the center (middle three) cities and try to split my trip in the easiest way I could.""}",,,,,,,,,,,,,,,,,,,,
w6b5340c,survey-text,308323,,77757,"{""Q0"":""You can see what the end nodes are first, and find a high value end node. If you want to be very risk-averse, you can then reveal the nodes leading to the end node.""}",,,,,,,,,,,,,,,,,,,,
w6b5340c,survey-text,476618,,167265,"{""Q0"":""Try and focus on your end goals first, and keep them in mind without overextending yourself. While the short term costs may look bad, the end goal might make it all worth it."",""Q1"":""Saving for retirement is a good parallel; while in the short term, the market might go down and I have to put in money, in the long term, my retirement savings will be worth much more. I may not necessarily know how it will go in between, but the end will be worth it."",""Q2"":""There were often situations where I had to take a loss before I could reach a high-value node, and I did not know the value of every other node. This is similar to what I have described.""}",,,,,,,,,,,,,,,,,,,,
w6b5340c,survey-text,597714,,120077,"{""Q0"":""I might see the least expensive city where each airport is first. Based on which is the least expensive, I might trace the shortest path back to Ruby Ridge and see if it works out; in most cases this should give amount of decent savings in time and money.""}",,,,,,,,,,,,,,,,,,,,
w805c6c1,survey-text,311602,,22985,"{""Q0"":""Think of where the best route would be and go towards that""}",,,,,,,,,,,,,,,,,,,,
w805c6c1,survey-text,874414,,561806,"{""Q0"":""To be as careful as possible "",""Q1"":""In my job search"",""Q2"":""In the way of making careful decisions for the best outcome""}",,,,,,,,,,,,,,,,,,,,
w805c6c1,survey-text,987021,,111603,"{""Q0"":""By choosing the shortest route possible""}",,,,,,,,,,,,,,,,,,,,
wea34a8c,survey-text,313897,,41527,"{""Q0"":""Look at the end values first and see if any of them are +48 because you will probably end up coming out ahead regardless of what the other circles are""}",,,,,,,,,,,,,,,,,,,,
wea34a8c,survey-text,391914,,77002,"{""Q0"":""Think about your ideal result and then try to find it; take the path with the least loss along the way"",""Q1"":""Find your dream job and then use any means necessary to get there"",""Q2"":""You know the ideal end result but the middle steps are uncertain""}",,,,,,,,,,,,,,,,,,,,
wea34a8c,survey-text,462118,,69185,"{""Q0"":""Find the cost of each hotel that immediately surrounds the destination and choose the cheapest; use the shortest route to get there""}",,,,,,,,,,,,,,,,,,,,
w3516c23,survey-text,527816,,43611,"{""Q0"":""Try to find the 48, the largest number.""}",,,,,,,,,,,,,,,,,,,,
w3516c23,survey-text,701227,,172382,"{""Q0"":""You have to take the bad with the good. The good should be more than the bad."",""Q1"":""Some family I choose to have in my life are not always acting responsible but the good outweighs their bad. "",""Q2"":""There are negatives along the path of life from situations and from people. You have to make it through the bad and keep going to reach the good reward.""}",,,,,,,,,,,,,,,,,,,,
w3516c23,survey-text,837755,,135495,"{""Q0"":""I'm not sure but maybe find out the cheapest rate for a stay at the airports. Follow the path to the cheapest airport.""}",,,,,,,,,,,,,,,,,,,,
wa1838b6,survey-text,704351,,219168,"{""Q0"":""One of the ways to increase my chances of finding a good path without spending too much on clicks is to limit myself on only two or three clicks. From those clicks I can determine if one path leads to $24 to just go for those paths instead of spending more in hopes to land a path with $48.""}",,,,,,,,,,,,,,,,,,,,
wa1838b6,survey-text,1349661,,644282,"{""Q0"":""I would describe to them that when making decisions you have to trust your gut feeling even if in the beginning you may experience some regret on your decision but in the long term that decision will bear fruit."",""Q1"":""An example of a decision in my own life where this strategy might work well in is when I decided to exercise."",""Q2"":""I find this situation similar to the Web of Cash game in which when I made my first step I felt like I lost something which in the case of exercise was the feeling of being relaxed since I needed to push my body. Once I reached my goal I felt relieved since I gain much more than when I started.""}",,,,,,,,,,,,,,,,,,,,
wa1838b6,survey-text,1522700,,172017,"{""Q0"":""I would limit the amount of times to check for the least expensive hotel and whichever hotel shows as the least expensive that is the one to pick.""}",,,,,,,,,,,,,,,,,,,,
w40d0dbb,survey-text,569664,,38384,"{""Q0"":""Thinking about what path you feels right with intution or brain thinking.""}",,,,,,,,,,,,,,,,,,,,
w40d0dbb,survey-text,689230,,118530,"{""Q0"":""Take your time and even if you lose a little, you might win more in the long run."",""Q1"":""An example could be when I was looking for a job, I applied roughly everywhere, even jobs I wasn't comfortable with. Few months later, got a job finally from a place I wasn't expecting but I enjoy it now."",""Q2"":""Choosing a negative or positive path isn't always necessarily what it means. ""}",,,,,,,,,,,,,,,,,,,,
w40d0dbb,survey-text,741788,,51536,"{""Q0"":""Take my time and think about the options even if it's deemed negative, it might be positive later on.""}",,,,,,,,,,,,,,,,,,,,
w9f3957e,survey-text,422916,,25850,"{""Q0"":""Click the end path to see where the best moves might be and then follow those.""}",,,,,,,,,,,,,,,,,,,,
w9f3957e,survey-text,506525,,82600,"{""Q0"":""That thinking about long term goals can help you maximize success."",""Q1"":""Planning how to spend money in the long term to maximize savings"",""Q2"":""You are trying to minimize spending to maximize your gains.""}",,,,,,,,,,,,,,,,,,,,
w9f3957e,survey-text,578152,,70604,"{""Q0"":""Click on all the airport cities first to see which is the least expensive and then click back on the one that is least expensive to see if it's the best value.""}",,,,,,,,,,,,,,,,,,,,
w5c61f89,survey-text,351212,,20789,"{""Q0"":""Only click until I have found the best possible path""}",,,,,,,,,,,,,,,,,,,,
w5c61f89,survey-text,400882,,48664,"{""Q0"":""To understand the consequences of short and long-term choices"",""Q1"":""How I can manage money "",""Q2"":""The more choices you make the more consequences you have""}",,,,,,,,,,,,,,,,,,,,
w5c61f89,survey-text,459326,,57433,"{""Q0"":""Just use my time/clicks until I think I have found the best possible route""}",,,,,,,,,,,,,,,,,,,,
wf1dfe06,survey-text,1409257,,49584,"{""Q0"":""You can select the nodes at the end to determine if heading in that direction will be of the most benefit.""}",,,,,,,,,,,,,,,,,,,,
wf1dfe06,survey-text,1669524,,259214,"{""Q0"":""I would say stay focused on your long term goals and figure out what will be most beneficial to you in the long run. Sometimes there will be times that will look like set backs but if you keep heading towards your goal it will pay off."",""Q1"":""In deciding to go to college out of state. The long term goal was to obtain a degree to apply to future endeavors. The short term negative was leaving my family in friends in my home state for 4 years while a pursued the goal. I could have stayed in my home state and went to state college but I was given a scholarship to attend an elite private college."",""Q2"":""This situation is similar to the Web of Cash game in that I had many choices and I needed to stay focused on the goal end goal what path I thought would fulfill my goal best. When I decided to go out of state for college it was a small negative in comparison to the great positive.""}",,,,,,,,,,,,,,,,,,,,
wf1dfe06,survey-text,1888248,,217705,"{""Q0"":""I would choose two paths with least amount of stops. Then from those two paths I would find out the price of the hotels from those two paths final destination.""}",,,,,,,,,,,,,,,,,,,,
wf974303,survey-text,381407,,25745,"{""Q0"":""Click on only the last ones until you find the +48""}",,,,,,,,,,,,,,,,,,,,
