wid,view_history,time_elapsed,trial_type,rt,responses,questions,correct,button_pressed,stimulus,block,simulation_mode,trial_id,prs,score,rewards,delays,actions,path,queries,trial_time,state_rewards,action_times,trial_index,key_press,restarts
w8864203,,600819,survey-text,142984,"{""Q0"":""It seemed like you would rather make the best short term amount rather than finding the best overall path. I tried to click as little as possible and it seemed to be working out until I used clicks to try and figure out why it was saying I picked the wrong path. Otherwise my tactic was to only reveal the nodes that I had a choice about going to. ""}",,,,,,,,,,,,,,,,,,,,
w8864203,,824435,survey-text,222599,"{""Q0"":""The lesson of this gamed seemed to be to make the best short term decisions rather than looking at the bigger picture. "",""Q1"":""Starting a business, everyone says it is best to just start. You product cannot be perfect in the beginning but you wont get to the end result without starting and getting to know your challenges. "",""Q2"":""Picking the first node to move to would be the start from there you might make a move that will set you back or cost you but in the end you'll arrive at the best solution and outcome and it will be better than where you started. ""}",,,,,,,,,,,,,,,,,,,,
w8864203,,905962,survey-text,80508,"{""Q0"":""Start slowly and pick the least expensive of the first three options and from there narrow down the choices of the single path that starts with the least cost. ""}",,,,,,,,,,,,,,,,,,,,
w8ac756d,,295161,survey-text,22803,"{""Q0"":""Only click the furthest away nodes because those will determine the most rewarding path!""}",,,,,,,,,,,,,,,,,,,,
w8ac756d,,361730,survey-text,65557,"{""Q0"":""Short term sacrifices can lead to long term results."",""Q1"":""Working out is difficult and time consuming, but it leads to better health and lower anxiety!"",""Q2"":""Short term sacrifices for long term gains.""}",,,,,,,,,,,,,,,,,,,,
w8ac756d,,409393,survey-text,46635,"{""Q0"":""Examine the largest expenses first""}",,,,,,,,,,,,,,,,,,,,
wb78f93f,,415441,survey-text,63501,"{""Q0"":""You must focus on the end nodes, and search until you have found the highest value final node.""}",,,,,,,,,,,,,,,,,,,,
wb78f93f,,518101,survey-text,101630,"{""Q0"":""Focus on end goals"",""Q1"":""Saving and investing money."",""Q2"":""Spend small amounts of money in search of valuable investment opportunities.""}",,,,,,,,,,,,,,,,,,,,
wb78f93f,,727650,survey-text,208522,"{""Q0"":""check for the cheapest hotels of the airports which have the shortest routes to reach.""}",,,,,,,,,,,,,,,,,,,,
wb8a5091,,1441704,survey-text,3807,"{""Q0"":""""}",,,,,,,,,,,,,,,,,,,,
wb8a5091,,1444162,survey-text,1428,"{""Q0"":"""",""Q1"":"""",""Q2"":""""}",,,,,,,,,,,,,,,,,,,,
wb8a5091,,1446218,survey-text,1027,"{""Q0"":""""}",,,,,,,,,,,,,,,,,,,,
w57d2fb6,,1811788,survey-text,35202,"{""Q0"":""Take the first positive cash flow you can \n""}",,,,,,,,,,,,,,,,,,,,
w57d2fb6,,2191268,survey-text,378465,"{""Q0"":""Observe the first initial step and the costs that they may equate to. For example in Web of Cash you reveal a node and its -2 but you reveal another path and its +2. If you get too greedy you can click another node but lose an additional $1 for a 50/50 chance of it being another decrease in your current cash balance. This is similar to opportunities that will appear in your lifetime. You want to be sure to look at your options but dont get too greedy. "",""Q1"":""This might work well in the real world example of potential jobs. Stay comfortable where I know I am comfortable and on a good bath but it may take a little longer with risks involved"",""Q2"":"". I have the option to look at other jobs or find a part time job for more cash flow. I am comfortable now but choosing either one of those choices could bring me discomfort or good fortune. ""}",,,,,,,,,,,,,,,,,,,,
w57d2fb6,,2245636,survey-text,53351,"{""Q0"":""spend some time looking ahead of time to avoid as much bad fortune that I can \n""}",,,,,,,,,,,,,,,,,,,,
wee86ff6,,875563,survey-text,67072,"{""Q0"":""Through hard work and intelligence one can make oneself perfect and capable.""}",,,,,,,,,,,,,,,,,,,,
wee86ff6,,991194,survey-text,114614,"{""Q0"":""In every step we need to make plan for winning any game."",""Q1"":""I make a decision and that is to follow a perfect plan to be succeeded."",""Q2"":""I think perfect plan can do anything.""}",,,,,,,,,,,,,,,,,,,,
wee86ff6,,1037873,survey-text,45664,"{""Q0"":""I always folly the rules of succeed.""}",,,,,,,,,,,,,,,,,,,,
w97f2d79,,584801,survey-text,61131,"{""Q0"":""click only on the last nodes to see the highest value available.\n""}",,,,,,,,,,,,,,,,,,,,
w97f2d79,,1135631,survey-text,549802,"{""Q0"":""To make sure that even though the best looking option in in the beginning may not be the best long term, always evaluate long term."",""Q1"":""This strategy would work well while making a big decision like what car to buy or where to live."",""Q2"":""It has a big impact long term because a certain car might cost you more on gas and parts while another will be cheaper in the long run. A house affects where you work and where your family is going to grow up and going to good schools,while also making sure other places are accessible. ""}",,,,,,,,,,,,,,,,,,,,
w97f2d79,,1312310,survey-text,175642,"{""Q0"":""To look at long term goals rather than focusing on short term.""}",,,,,,,,,,,,,,,,,,,,
w6285f54,,252885,survey-text,31836,"{""Q0"":""That it's worth it to pay a little more in the beginning to know which path would be best to take. ""}",,,,,,,,,,,,,,,,,,,,
w6285f54,,292057,survey-text,38158,"{""Q0"":""Hard work in the start of a new task or project will pay off in the end as it will create a clearer path."",""Q1"":""Starting a new business"",""Q2"":""There are risks and rewards.""}",,,,,,,,,,,,,,,,,,,,
w6285f54,,363470,survey-text,70363,"{""Q0"":""Do the hard work or time consuming work as it will pay off.""}",,,,,,,,,,,,,,,,,,,,
w250e368,,355230,survey-text,32996,"{""Q0"":""Only look for the long term effects.""}",,,,,,,,,,,,,,,,,,,,
w250e368,,469429,survey-text,113195,"{""Q0"":""Do not worry about short term set backs. Keep your eye on the long term payoff"",""Q1"":""Waiting to make a large purchase until an anticipated sale."",""Q2"":""If I know the sale is coming then I can put off a large purchase until then to save myself some money.""}",,,,,,,,,,,,,,,,,,,,
w250e368,,603040,survey-text,132606,"{""Q0"":""Look for the routes that give you the most options.""}",,,,,,,,,,,,,,,,,,,,
wcb3d9b5,,278719,survey-text,42535,"{""Q0"":""I feel like finding the best option that is furthest away is the most helpful, almost disregarding the first two nodes.""}",,,,,,,,,,,,,,,,,,,,
wcb3d9b5,,404737,survey-text,124970,"{""Q0"":""I would say that the real goal is your long term one and even though you may lose in the short term, it will be worth it in the end."",""Q1"":""An example in my own life is choosing to finish getting my degree. "",""Q2"":""In the short term it is costly with both time and money but once I have reached the goal it benefits me much more than the early cost. ""}",,,,,,,,,,,,,,,,,,,,
wcb3d9b5,,475706,survey-text,69918,"{""Q0"":""I could check the cost of the destination hotels first and maybe one or two along the way instead of checking every one. ""}",,,,,,,,,,,,,,,,,,,,
w62e6de7,,324234,survey-text,74134,"{""Q0"":""I only clicked on the ends of the webs to see what the ending payment would be""}",,,,,,,,,,,,,,,,,,,,
w62e6de7,,587626,survey-text,262369,"{""Q0"":""You should always be planning for the future.  Everything you do today can have a positive or negative impact on the rest of your life. "",""Q1"":""The first thing I think of when applying this strategy to my life is retirement or saving money.  Even putting a little bit away each month is better than nothing and it will be easier if I ever have an emergency.  "",""Q2"":""I might be losing a little spending money every month, but in the long term I could actually end up making money because of interest.  ""}",,,,,,,,,,,,,,,,,,,,
w62e6de7,,992656,survey-text,404022,"{""Q0"":""The shortest routes require the person to stop at at least two cities before spending the night at the hotel.  If they wanted to see a lot of the island, it would be neat to travel to every city possible before the airport but that would cost more.  I would go through Warpcliff, then to Pride Mesa, then to Longgorge.  This way you see the interior of the island, then head toward the coast, then head to the airport.""}",,,,,,,,,,,,,,,,,,,,
w21babce,,826409,survey-text,72529,"{""Q0"":""make decisions quickly""}",,,,,,,,,,,,,,,,,,,,
w21babce,,911634,survey-text,84159,"{""Q0"":""always follow your instinct "",""Q1"":"""",""Q2"":""""}",,,,,,,,,,,,,,,,,,,,
w21babce,,995803,survey-text,83160,"{""Q0"":""i will always plan my journey from the beginning ""}",,,,,,,,,,,,,,,,,,,,
w3bd453e,,398793,survey-text,20985,"{""Q0"":""spread out the clicks more ""}",,,,,,,,,,,,,,,,,,,,
w3bd453e,,464095,survey-text,64277,"{""Q0"":""Sometimes it is good to look at your surroundings and find out more information before moving"",""Q1"":""tasks at work "",""Q2"":""There are many different paths that I can take but it is good to slow down and find which path will work the best ""}",,,,,,,,,,,,,,,,,,,,
w3bd453e,,500833,survey-text,35731,"{""Q0"":""spreading out the information for both is helpful""}",,,,,,,,,,,,,,,,,,,,
wb82340a,,420402,survey-text,48065,"{""Q0"":""I can click on a node""}",,,,,,,,,,,,,,,,,,,,
wb82340a,,503449,survey-text,82043,"{""Q0"":""This is just like life, sometimes you do good and sometimes you don't"",""Q1"":""Just life in general, I started a new job, some days are good and some aren't. "",""Q2"":""Things are going good and then bam!""}",,,,,,,,,,,,,,,,,,,,
wb82340a,,537541,survey-text,33068,"{""Q0"":""I would just randomly pick something so I don't have to pay for it in time""}",,,,,,,,,,,,,,,,,,,,
w18781f0,,948680,survey-text,458766,"{""Q0"":""It seems to me that the middle of the road value is the best decision long-term, so to find a good path while only using 1-2 clicks, I will select any one path (it doesn't matter which one) and see the value. If the value is at an extreme (-4) or (4), I will click another one to see its value. If the value is not too high or too low (0-2) I will go to that node. If both nodes are at extreme values, I will go to the one where I haven't revealed at all. If there's a middle of the road one, I will go to that one immediately. If there are two middle of the road values, I will take my best guess and move forward.\n\nThat way, I can guess which node is best without sacrificing all my clicks.""}",,,,,,,,,,,,,,,,,,,,
w18781f0,,1239709,survey-text,289997,"{""Q0"":""I will say always think about the long-term consequences of the decisions you make. What big rewards you earn short-term rarely work out long-term. Don't pursue things with instant gratification, and patience is a virtue."",""Q1"":""I was conflicted between a decision to do my work vs. playing video games. If I played video games, I would feel more at ease, but it will mean less time to finish my work, and therefore the quality of work will decrease."",""Q2"":""It's similar because I must judge different scenarios (or in the game, nodes) based on the rewards I get. Playing video games may look rewarding in the beginning but doing it first then work is bad decision-making where the long-term rewards are less valuable than if I do my work first.""}",,,,,,,,,,,,,,,,,,,,
w18781f0,,1539864,survey-text,299113,"{""Q0"":""In the Web of Cash it seems to me the best option is always the middle-of-the-road value. Bargain-hunting works short-term, but they may end up costing more overall. Also, since the client is going to stay at a hotel, looking for the shortest route is also important (2 stops max), but only if the hotel prices is less than that than a route with more than two stops. I'm not sure about city sizes, but smaller cities that are not resort towns are going to be less expensive than big cities and resort towns.""}",,,,,,,,,,,,,,,,,,,,
w9f905bf,,289597,survey-text,47816,"{""Q0"":""if you click on two, choose the one that's green. if neither are green, choose the one you didn't click.""}",,,,,,,,,,,,,,,,,,,,
w9f905bf,,402840,survey-text,112234,"{""Q0"":""don't spend too much time thinking about options, just survey a few and take what you've learned from the previous choices."",""Q1"":""buying furniture"",""Q2"":""you can use previous experiences to make more efficient decisions""}",,,,,,,,,,,,,,,,,,,,
w9f905bf,,447911,survey-text,44065,"{""Q0"":""check the prices of all, and choose the one that's least expensive at first.""}",,,,,,,,,,,,,,,,,,,,
wd2a5404,,452325,survey-text,47677,"{""Q0"":""I always revealed the last nodes to find the highest value and then went to that, no matter the consequences at the beginning or middle.""}",,,,,,,,,,,,,,,,,,,,
wd2a5404,,669804,survey-text,216457,"{""Q0"":""Look toward the future, long-term goals. Do not waste too much time on the everyday minutiae of life, or you'll get too caught up in it."",""Q1"":""Focusing on my end career goal, and not worrying too much about the small expenditures because at the end of the day, they are nothing compared to my end goal."",""Q2"":""It's like the game because spending a little bit of money to focus on the end goal proved to be most rewarding, at least for me.""}",,,,,,,,,,,,,,,,,,,,
wd2a5404,,762342,survey-text,91518,"{""Q0"":""Web of cash taught me to think in the most efficient way possible, so hopefully it will be applicable to this game.""}",,,,,,,,,,,,,,,,,,,,
w944d981,,373304,survey-text,9894,"{""Q0"":""Click the long-term ones first.""}",,,,,,,,,,,,,,,,,,,,
w944d981,,446697,survey-text,72362,"{""Q0"":""Look at the long-term goals that you most want to achieve and figure out how to get there while being as successful as possible."",""Q1"":""Choosing a career path."",""Q2"":""I have to think about what will make me happiest long term and then decide smaller decisions like do I want to take a paycut or go back to school, all of which affect me differently.""}",,,,,,,,,,,,,,,,,,,,
w944d981,,489367,survey-text,41647,"{""Q0"":""Start with short term goals instead of long-term ones I think.""}",,,,,,,,,,,,,,,,,,,,
we102018,,491932,survey-text,104524,"{""Q0"":""Click on the end of the paths first. If the reward at the end is the highest possible reward, then take that path. If the reward is not the highest possible reward, click on the middle point of the path. If the cost is not too high, take that path. If there are two with the same reward, choose the path that costs the least. ""}",,,,,,,,,,,,,,,,,,,,
we102018,,631922,survey-text,138978,"{""Q0"":""You have to take some sacrifices for a larger reward. This can apply to most paths and choices of life."",""Q1"":""I thought of school. If you study more which will take time away from friends, you will end up having a better GPA and in return, a better chance at a better college/graduate school. "",""Q2"":""There are costs (spending more time studying) for a reward (good school choices) ""}",,,,,,,,,,,,,,,,,,,,
we102018,,720572,survey-text,87623,"{""Q0"":""Essentially, I will work backwards from the destination to the beginning. I will have to take some time finding out the prices of certain spots but not all spots. ""}",,,,,,,,,,,,,,,,,,,,
wa017e29,,584353,survey-text,64601,"{""Q0"":""looking at the first node of each path to help rule out lower value paths""}",,,,,,,,,,,,,,,,,,,,
wa017e29,,966141,survey-text,380781,"{""Q0"":""always check each of the first dots then check the second dots based on the first dots value"",""Q1"":""in general it is good to always check your options before choosing one path. Like currently I am looking into grad schools and it would be dumb to just choose the first one that looks good before looking at other options."",""Q2"":""like in the game even when looking into the \""dots\"" it is still possible to choose the wrong path without looking at each dot to know for sure""}",,,,,,,,,,,,,,,,,,,,
wa017e29,,1126628,survey-text,159479,"{""Q0"":""check the closer ones first and rule out the more expensive path""}",,,,,,,,,,,,,,,,,,,,
wf43957b,,473926,survey-text,108933,"{""Q0"":""I clicked on the long-term consequences first to see which path would end in 48 (or 24, whichever was the highest) amount of points. Whichever direction had one of the two results ending in 48, I took my chances with that direction.""}",,,,,,,,,,,,,,,,,,,,
wf43957b,,671308,survey-text,196307,"{""Q0"":""Life has many different paths, and while some paths ultimately lead to the same end result, usually each path has a different reward at the end. To help make your decision, weigh all of the short and mid term consequences to help you make the best decision. Additionally, recognize and understand that sometimes, all paths will require some kind of sacrifice thought these sacrifices are usually less than the reward at the end and usually make the decision worth it. "",""Q1"":""Choosing a career. "",""Q2"":""As is the nature of job-hunting, I apply to multiple jobs at a time, and sometimes there is crossover in the application process. This strategy could help me weigh the short, mid, and long term consequences of each job, including its salary, benefits, location, etc. ""}",,,,,,,,,,,,,,,,,,,,
wf43957b,,966344,survey-text,294003,"{""Q0"":""I would look at the first round of cities on each of the three paths: Windy Port, Warcliff, and Goldenlake. To plan the trip as quickly as possible, I would then go in the direction that had the least expensive hotel. From there, if there is a fork in the path, I would find out the prices of the hotels in the next two cities. For example, if Windy Port had the least expensive hotel, then I would focus on finding out if New Reach or Sandbluff had the least expensive hotel. ""}",,,,,,,,,,,,,,,,,,,,
w0b7897b,,2105303,survey-text,148476,"{""Q0"":""following the instructions""}",,,,,,,,,,,,,,,,,,,,
w0b7897b,,2168022,survey-text,61706,"{""Q0"":""Always try to follow instructions"",""Q1"":""Going to a destination using the shortest path"",""Q2"":""Traveling from one place to another.""}",,,,,,,,,,,,,,,,,,,,
w0b7897b,,2192317,survey-text,23285,"{""Q0"":""Using the shortest possible path""}",,,,,,,,,,,,,,,,,,,,
w66a9969,,593121,survey-text,40279,"{""Q0"":""First i will try my luck and then i will go for what i can get max.""}",,,,,,,,,,,,,,,,,,,,
w66a9969,,673602,survey-text,79449,"{""Q0"":""Read the full instruction and don't rush and keep your head cool."",""Q1"":""Always be calm and try your best."",""Q2"":""It like lottery with more chances""}",,,,,,,,,,,,,,,,,,,,
w66a9969,,820513,survey-text,145882,"{""Q0"":""I will go to the destination quickly and less costly.""}",,,,,,,,,,,,,,,,,,,,
wa9c9e3b,,518392,survey-text,124262,"{""Q0"":""I can focus on what I already found instead of clicking more to find a better path.""}",,,,,,,,,,,,,,,,,,,,
wa9c9e3b,,631404,survey-text,111995,"{""Q0"":""That everyone has ups and downs when it comes to life. You just have to focus on the bigger picture."",""Q1"":""In school aspect, you can't focus on a single grade but the overall grade."",""Q2"":""School like above.""}",,,,,,,,,,,,,,,,,,,,
wa9c9e3b,,728928,survey-text,96518,"{""Q0"":""Try to reach the final destination by not going to as much cities to save money.""}",,,,,,,,,,,,,,,,,,,,
w8a6ea6e,,517240,survey-text,88689,"{""Q0"":""To prevent from spending too much on clicks, you can look to see how much cash or bonus is at the end of one path. Like instead of clicking the first two nods, you could just see how much the end is to decide the best one. ""}",,,,,,,,,,,,,,,,,,,,
w8a6ea6e,,798800,survey-text,280535,"{""Q0"":""I would say that although there might be negative short term or midterm effects, what lies at the end of a path or time is what matters the most. It best to stay dedicated because you might luck out at the end. "",""Q1"":""In my own life, I would say this strategy most applies to college. Although college has its setbacks like stress or toxic people, the end goal is getting a degree and getting an education. "",""Q2"":""This situation is similar because stress could be a setback that might discourage someone from going to college, but they should focus on what they would get in the end. Rather than focusing on the negatives along the way, the best it to look at the positive result awaiting. ""}",,,,,,,,,,,,,,,,,,,,
w8a6ea6e,,939596,survey-text,139773,"{""Q0"":""I would consider balancing the amount of time I send on looking for cheaper hotels compared to the fastest route. ""}",,,,,,,,,,,,,,,,,,,,
wf92274e,,328400,survey-text,24380,"{""Q0"":""Identify the end goal that is best and see what the cost would be to get there""}",,,,,,,,,,,,,,,,,,,,
wf92274e,,472989,survey-text,143555,"{""Q0"":""While short-term goals are important, you will likely benefit more from looking at the end result first"",""Q1"":""Investing for retirement"",""Q2"":""There might be ups and downs in the market in the short-term, what is most important is long term performance""}",,,,,,,,,,,,,,,,,,,,
wf92274e,,515864,survey-text,41845,"{""Q0"":""Work backwards to get to a good result""}",,,,,,,,,,,,,,,,,,,,
w5d42ffe,,456384,survey-text,45539,"{""Q0"":""Focus on the nodes that are farthest away from you because they give you the best chance of a higher pay off""}",,,,,,,,,,,,,,,,,,,,
w5d42ffe,,595113,survey-text,137725,"{""Q0"":""Think about what you ultimately want/where you want to be in life, from there, figure out what you need to accomplish in order to be in that life. Finally, figure out the small things you can do today to work towards these goals."",""Q1"":""Going back to school. My ultimate goal is to finally get my bachelors, which means I need to take more classes, but what I can do today is register for said classes. "",""Q2"":""My ultimate, delayed gratification, goal is to graduate, but I have other things I need to get through before I can complete that.""}",,,,,,,,,,,,,,,,,,,,
w5d42ffe,,673072,survey-text,76941,"{""Q0"":""Figure out which airport has the cheapest hotel and work backwards from there.""}",,,,,,,,,,,,,,,,,,,,
wbd96d4b,,534301,survey-text,32572,"{""Q0"":""You should look at the farthest nodes as they have a bigger impact than the closest nodes""}",,,,,,,,,,,,,,,,,,,,
wbd96d4b,,762415,survey-text,227110,"{""Q0"":""Focus on the long term not the short term"",""Q1"":""I chose to study computer science even though it is one of the hardest majors"",""Q2"":""the ending result is worth it""}",,,,,,,,,,,,,,,,,,,,
wbd96d4b,,811310,survey-text,47886,"{""Q0"":""Look at the farther hotels""}",,,,,,,,,,,,,,,,,,,,
w7df5d15,,452528,survey-text,103316,"{""Q0"":""What I did was: I checked the landing/ending nodes of the path I felt I should go on to see if the steps there (whether they be positive or negative numbers) would pay off in the end. Sometimes I had to check multiple ending nodes""}",,,,,,,,,,,,,,,,,,,,
w7df5d15,,776507,survey-text,322973,"{""Q0"":""I would say that a lot of the time, its good to take risks. For some people/scenarios, the risks you take will always pay off but in others, you can't see the pay off until the end. There are also times where it doesn't pay off at all and so I would suggest that you make a solid plan in which you know what your end goal is, and take risks to get there."",""Q1"":""When planning an argumentative essay in school, I would always make sure I have my final argument written first. This is helpful because there are times when, while doing your research, you will come across counter arguments that are just really good. Its important to stand your ground and know what point you want to prove, rather than getting side tracked."",""Q2"":""In wed of cash, I looked at the final node of the path I wanted to chose so that I could know whether I'll have gained in the end or not. If I know that before hand, I can be less concerned about what money I might lose on the way there.""}",,,,,,,,,,,,,,,,,,,,
w7df5d15,,986497,survey-text,208985,"{""Q0"":""I would say though its time consuming, check what the least inexpensive hotel in one of the routes to an airport rather than all.""}",,,,,,,,,,,,,,,,,,,,
w06f009a,,247142,survey-text,18441,"{""Q0"":""Check long term outcomes for best one""}",,,,,,,,,,,,,,,,,,,,
w06f009a,,309687,survey-text,61530,"{""Q0"":""Setting a long term goal ensures that you end up in better off in the end even if it means taking unexpected losses in the beginning"",""Q1"":""Planning a future career."",""Q2"":""You do not know what happens but as long as your final goal is good you will end up on top""}",,,,,,,,,,,,,,,,,,,,
w06f009a,,360673,survey-text,49972,"{""Q0"":""Work backwards from the destination ""}",,,,,,,,,,,,,,,,,,,,
w1303cf3,,220900,survey-text,12998,"{""Q0"":""Clicking on the ending nodes""}",,,,,,,,,,,,,,,,,,,,
w1303cf3,,253440,survey-text,31528,"{""Q0"":""To focus on the ultimate goal"",""Q1"":""Big decisions such as college/career choices"",""Q2"":""You have to focus on the big picture""}",,,,,,,,,,,,,,,,,,,,
w1303cf3,,276860,survey-text,22402,"{""Q0"":""To focus on the big picture""}",,,,,,,,,,,,,,,,,,,,
wda928cd,,524791,survey-text,20584,"{""Q0"":""worry less about short term and focus on long term choices\n""}",,,,,,,,,,,,,,,,,,,,
wda928cd,,619039,survey-text,93220,"{""Q0"":""Sometimes you need to take a short term loss for a long term payoff (take your medicine before you eat a treat)."",""Q1"":""Investing for retirement.  I chose riskier options for the short term when I was younger because of the increased chance of long term benefit"",""Q2"":""It's a marathon, not a sprint.  So, in the web of cash game, the short term number doesn't always represent the final amount won in a round""}",,,,,,,,,,,,,,,,,,,,
wda928cd,,669143,survey-text,49096,"{""Q0"":""don't worry so much about any one step along the way, look for the cumulative savings.""}",,,,,,,,,,,,,,,,,,,,
w5b77ae1,,700130,survey-text,26123,"{""Q0"":""Learn from the previous paths you took""}",,,,,,,,,,,,,,,,,,,,
w5b77ae1,,748697,survey-text,47539,"{""Q0"":""This game shows that your actions have consequences"",""Q1"":""N/A"",""Q2"":""N/A""}",,,,,,,,,,,,,,,,,,,,
w5b77ae1,,887368,survey-text,137644,"{""Q0"":""N/A""}",,,,,,,,,,,,,,,,,,,,
wd9a281c,,498425,survey-text,40502,"{""Q0"":""click the end ones and when you find the 48 stop""}",,,,,,,,,,,,,,,,,,,,
wd9a281c,,592390,survey-text,92923,"{""Q0"":""Quickest path may seem easier but you need to look at the outcome"",""Q1"":""career paths"",""Q2"":""I have to look at different options before making a decisions""}",,,,,,,,,,,,,,,,,,,,
wd9a281c,,633756,survey-text,40343,"{""Q0"":""Get there quickly""}",,,,,,,,,,,,,,,,,,,,
w537b564,,294580,survey-text,71262,"{""Q0"":""Look at the end nobs. Dont click each one. The end value was always greater on the last one than in the middle pathway so no matter what you still made money in the end.""}",,,,,,,,,,,,,,,,,,,,
w537b564,,478427,survey-text,182835,"{""Q0"":""Don't waste time thinking about something you like. In the end their is always some value of trying and learning from experience."",""Q1"":""This reminds me of when I was looking for a job. If your too worried about getting the perfect one in the end you might end up with nothing at all. When you could have had a great opportunity. "",""Q2"":""The journey looked scary as I wasnt sure what the negatives would be along the way but I knew in the end time it would be a positive outcome.""}",,,,,,,,,,,,,,,,,,,,
w537b564,,707552,survey-text,228112,"{""Q0"":""First find which points has the least stops and only get the price of the hotel in the longest distance you will be one the road. So the agent will only need to find the cost of 2 hotels. I would get the prices of windy port and pride mesa because that route has two options that are only 3 stops. ""}",,,,,,,,,,,,,,,,,,,,
wc41b85b,,276961,survey-text,33917,"{""Q0"":""Just click the last dots, they are more likely to have positive high amounts of money.""}",,,,,,,,,,,,,,,,,,,,
wc41b85b,,458289,survey-text,180313,"{""Q0"":""Focus on the long term goals/objectives. The short-term affects are less important than the long-term affects."",""Q1"":""Studying in college to get a degree, or saving up money to get a house/car."",""Q2"":""Investing in education likely will get me a better paying job than without going to college. This relates to the game because the long-term effects (degree and high amount of money) is more important than the short-term effects (spending time and money for classes and low amount of money).""}",,,,,,,,,,,,,,,,,,,,
wc41b85b,,556824,survey-text,97521,"{""Q0"":""The last destination (the spot near the airport) that has the most inexpensive hotel likely will have the most inexpensive hotels that route (the hotels leading up to the spot near the airport).""}",,,,,,,,,,,,,,,,,,,,
w29c765e,,244637,survey-text,29287,"{""Q0"":""Just follow along and hope for the best. ""}",,,,,,,,,,,,,,,,,,,,
w29c765e,,296147,survey-text,50498,"{""Q0"":""Make your choices carefully and think through them. "",""Q1"":""Should you take a job or not. "",""Q2"":""Either I gamble on a less ideal job or take a different route. ""}",,,,,,,,,,,,,,,,,,,,
w29c765e,,313688,survey-text,16528,"{""Q0"":""By the arrows and directions the spider went.""}",,,,,,,,,,,,,,,,,,,,
wea0e2bd,,757277,survey-text,27458,"{""Q0"":""Look only for the $48 node and stop clicking after you find it.""}",,,,,,,,,,,,,,,,,,,,
wea0e2bd,,809227,survey-text,50937,"{""Q0"":""Work smarter, not harder."",""Q1"":""Making a plan so I know what to do."",""Q2"":""Planning ahead helps to reduce consequences in the long run.""}",,,,,,,,,,,,,,,,,,,,
wea0e2bd,,855194,survey-text,44942,"{""Q0"":""Research all of the hotels first to find out which ones will maximize your efforts.""}",,,,,,,,,,,,,,,,,,,,
w4b72058,,275650,survey-text,26678,"{""Q0"":""Look at the long term results and weigh out if the short term consequences are worth it""}",,,,,,,,,,,,,,,,,,,,
w4b72058,,362731,survey-text,86051,"{""Q0"":""Sometimes you have to lose a little to reach your long term goals"",""Q1"":""Going through tough internships to get the job I want"",""Q2"":""getting set back a few dollars to win the 48 dollars is like doing the work to get to your goal""}",,,,,,,,,,,,,,,,,,,,
w4b72058,,399187,survey-text,35448,"{""Q0"":""click on the middle ones first or the last ones""}",,,,,,,,,,,,,,,,,,,,
w4fc6baf,,649723,survey-text,29824,"{""Q0"":""You can think prior to just choosing a path, and really determine how bad the potential consequences could be.""}",,,,,,,,,,,,,,,,,,,,
w4fc6baf,,806099,survey-text,155369,"{""Q0"":""Every action that you take in life has a potential gain and risk. Along with that, just doing the action alone can cost something out of your life."",""Q1"":""Prior to buying something you find that could be useful at the time, you must think about the potential gains you could get from purchasing the product or the consequences. "",""Q2"":""When buying something, you begin by taking a risk in buying the product. Thats where the payment of the first movement comes into play. Then whether or not to decide if you are going to buy the product, similar to the game where you choose what direction you go in, can ultimately decide your fate.""}",,,,,,,,,,,,,,,,,,,,
w4fc6baf,,891501,survey-text,84397,"{""Q0"":""Being able to understand that some days you may have to take the choice where you pay more and other days it won't necessarily be that amount.""}",,,,,,,,,,,,,,,,,,,,
w002a271,,493305,survey-text,125159,"{""Q0"":""Choose a path that has positive results for the first two decisions\n""}",,,,,,,,,,,,,,,,,,,,
w002a271,,759716,survey-text,265394,"{""Q0"":""Evaluate the short term and mid term effects of a decision before deciding to commit to the long term decision."",""Q1"":""Spending money on something that isn't necessary. Short-term is how much joy it brings me in the moment, mid-term is how much money I'll have left if I purchase it, while long-term may be being able to afford bills or groceries."",""Q2"":""It's similar, since the long-term effect has the potential to be positive or negative depending on how you define value of the decision. It could be the emotional value of the decision or the financial value.""}",,,,,,,,,,,,,,,,,,,,
w002a271,,924595,survey-text,163870,"{""Q0"":""Identify the shortest route to the desired destination, see which route has the cheapest hotels in the first two cities and decide based on those.""}",,,,,,,,,,,,,,,,,,,,
w8143d32,,444541,survey-text,41463,"{""Q0"":""Click the outside nodes first\n""}",,,,,,,,,,,,,,,,,,,,
w8143d32,,583002,survey-text,137451,"{""Q0"":""You may need to lose money first before you can achieve your goal amount. "",""Q1"":""I want to get more customers in my business to increase revenue, but to do that i need to spend some money on advertisements, so more people can hear about my business. "",""Q2"":""You have to spend small amounts of money to gain bigger revenue in the end.""}",,,,,,,,,,,,,,,,,,,,
w8143d32,,623139,survey-text,39119,"{""Q0"":""You have to explore different options to find the best way and price. ""}",,,,,,,,,,,,,,,,,,,,
wa779b58,,970159,survey-text,36386,"{""Q0"":""How to play the game,and how to earn money.""}",,,,,,,,,,,,,,,,,,,,
wa779b58,,1043583,survey-text,72393,"{""Q0"":""Take the best path to achieve your goal."",""Q1"":""find out the best path and way to success."",""Q2"":""Yes, in my work place .""}",,,,,,,,,,,,,,,,,,,,
wa779b58,,1130869,survey-text,86272,"{""Q0"":""I will find out the least expensive hotel in the city.""}",,,,,,,,,,,,,,,,,,,,
wcda4c83,,395947,survey-text,56282,"{""Q0"":""I can go down the first good path I click on instead of continuing to look for a better one. ""}",,,,,,,,,,,,,,,,,,,,
wcda4c83,,568662,survey-text,171704,"{""Q0"":""The short term and mid term consequences are worth it in the end if the long term consequences are worthy. "",""Q1"":""Pursuing a career. The journey of achieving my goal may seem difficult but it's worth it in the end. "",""Q2"":""I might be sacrificing certain things going down my path just like the spider lost some money but in the end the reward will make up for it. ""}",,,,,,,,,,,,,,,,,,,,
wcda4c83,,913727,survey-text,344057,"{""Q0"":""I wouldn't waste my time looking up the price of every hotel in each city. Instead, I would look up a few and choose from those. This way I'm not wasting all my time. ""}",,,,,,,,,,,,,,,,,,,,
w7f26155,,537119,survey-text,36471,"{""Q0"":""Follows my instinct to guide me""}",,,,,,,,,,,,,,,,,,,,
w7f26155,,643238,survey-text,105106,"{""Q0"":""That will be consequences in our decision, and also there might be a setback but we must not give up"",""Q1"":""By getting to learn a new skill"",""Q2"":""very similar, there was enough distraction and setbacks""}",,,,,,,,,,,,,,,,,,,,
w7f26155,,700279,survey-text,56031,"{""Q0"":""Use my instinct to decide the prices of the hotel""}",,,,,,,,,,,,,,,,,,,,
wf3f3242,,320630,survey-text,9129,"{""Q0"":""click the end bubbles first ""}",,,,,,,,,,,,,,,,,,,,
wf3f3242,,378719,survey-text,57085,"{""Q0"":""Sometimes you have to take a short term loss in order to find the most fulfilling future."",""Q1"":""Choosing to go to grad school and take a loss in the short run to improve my career in the longrun."",""Q2"":""In the game, sometimes I have to lose some money to get to the largest prize in the end and deal with the uncertainty along the way.""}",,,,,,,,,,,,,,,,,,,,
wf3f3242,,407377,survey-text,27655,"{""Q0"":""Start from the end and work backwards from there.""}",,,,,,,,,,,,,,,,,,,,
wc681ec0,,470946,survey-text,14751,"{""Q0"":""Stop while I am ahead""}",,,,,,,,,,,,,,,,,,,,
wc681ec0,,607250,survey-text,135291,"{""Q0"":""I would say that the journey is also equally important, and you might not get too many chances so take what you get."",""Q1"":""I was too greedy with my salary and ended up turning all job offers down, so I made no money."",""Q2"":""When deciding whether to keep pursuing more or stop with what you have. ""}",,,,,,,,,,,,,,,,,,,,
wc681ec0,,665916,survey-text,57654,"{""Q0"":""I would say slow down to ensure that you are setting yourself up for success. ""}",,,,,,,,,,,,,,,,,,,,
w49fba62,,523520,survey-text,29590,"{""Q0"":""Clicking on the bodes for $1 to decide the best path.""}",,,,,,,,,,,,,,,,,,,,
w49fba62,,597574,survey-text,73045,"{""Q0"":""Everything is not how it seems."",""Q1"":""You might think a person is good at first but then their true colors start to show."",""Q2"":""No matter what there are risks involved.""}",,,,,,,,,,,,,,,,,,,,
w49fba62,,669122,survey-text,70526,"{""Q0"":""I will click on one city and decide if that is the path. Use my intuition.""}",,,,,,,,,,,,,,,,,,,,
wd9321f0,,464899,survey-text,28323,"{""Q0"":""Try to see if their is a pattern that they follow""}",,,,,,,,,,,,,,,,,,,,
wd9321f0,,546816,survey-text,80907,"{""Q0"":""Don't depend on others(on clicks) for everything."",""Q1"":""Depending on family to get me out of situations."",""Q2"":""They're similar to clicks. If I kept clicking, I would know the answer. If I kept depending on them, I would always be on top of things.""}",,,,,,,,,,,,,,,,,,,,
wd9321f0,,618049,survey-text,70205,"{""Q0"":""Trying to see what surrounds the hotel. Sometimes, the surrounding area is a giveaway on if something in that area is expensive or not.""}",,,,,,,,,,,,,,,,,,,,
w540306d,,405812,survey-text,39405,"{""Q0"":""You can look at the long term rewards first to see if the steps would be worth it.""}",,,,,,,,,,,,,,,,,,,,
w540306d,,605926,survey-text,199106,"{""Q0"":""Look at the long term benefits for something and weigh them against the short term drawbacks."",""Q1"":""A good decision to apply this to is studying for a college quiz. I might be exhausted and would rather sleep, but one good grade could be the difference between two grades in the long term."",""Q2"":""For quizzes, I can choose to study and hate myself instead of doing something I would rather do. I would lose a few points like in the Web of Cash game. However, when my grade is an A at the end of the semester, its a much bigger reward than the drawback I suffered, like the +48 reward in the Web of Cash game.""}",,,,,,,,,,,,,,,,,,,,
w540306d,,813083,survey-text,206130,"{""Q0"":""Take the shortest route and look up affordable hotels at each stop.""}",,,,,,,,,,,,,,,,,,,,
wb02245e,,333818,survey-text,83223,"{""Q0"":""I tried harder at the beginning, took risks. Mid-way I tried paying $1 to fo even better, but I started losing, so at the end I tried to do the same I think at the beginning of the journey. But I was too desperate and it didn't work.""}",,,,,,,,,,,,,,,,,,,,
wb02245e,,469429,survey-text,134592,"{""Q0"":""Think about your decisions thinking short and long term wise."",""Q1"":""Work"",""Q2"":""I have to start confidently and not shy away later on. Keep trusting. myself the whole time.""}",,,,,,,,,,,,,,,,,,,,
wb02245e,,668585,survey-text,198141,"{""Q0"":""I would check out the three closest places check their prize and then check the next two places from each of the other three. I realize which paths have more steps, so I avoid them as that would be more money. So, the best option would be to take either of the corner routes, depending of course on how expensive they are, as they are by the beach.""}",,,,,,,,,,,,,,,,,,,,
w4ae5004,,616169,survey-text,161863,"{""Q0"":""As I was playing I realized each end has two nodes, one node is a negative number while the other is a positive number. Once I noticed this I could spend less money and move less as I new the odds of it being positive.""}",,,,,,,,,,,,,,,,,,,,
w4ae5004,,909852,survey-text,292679,"{""Q0"":""I learned that although you know the final outcome will be positive it doesn't always mean the journey will be."",""Q1"":""not going fast and enjoying the now and realizing its not about the destination its about the journey. "",""Q2"":""I could click a node and find out the number once I new it I could travel to it although the goal was accomplished I lost some on the way by going on the nodes to achieve it. ""}",,,,,,,,,,,,,,,,,,,,
w4ae5004,,1075162,survey-text,164305,"{""Q0"":""I would look at each price and the route and calculate which hotels are cheapest and which flights that are cheapest and what route that is.""}",,,,,,,,,,,,,,,,,,,,
w436f611,,452639,survey-text,53044,"{""Q0"":""If you can afford to, it is best to consider all of the options, even though they are $1. It was tricky to ensure that you went to the correct node without revealing what the final step's reward was.""}",,,,,,,,,,,,,,,,,,,,
w436f611,,661039,survey-text,207373,"{""Q0"":""The lesson revolves around the principal that good decision making is a long-term investment. Sometimes I would choose a path that first presented me with a -4 spot, knowing that I could easily make that back if the node ended in a +24. I opted to make a good decision, even though the immediate consequence was not my favorite."",""Q1"":""This reminds me of a typical Friday or Saturday night decision. When I look at my weekend plans, I want to go out, have fun, socialize, and see my friends. But I know that this immediate gratification decision will make me tired the next day, maybe sluggish, and I won't get anything done from my weekend to-do list. If I choose not to go out, I'll have the energy to do my grocery shopping, and I will start the next week ready for success. If I chose the immediate gratification, I wouldn't be as prepared."",""Q2"":""Choosing not to go out is like choosing -4, knowing that this decision will pay off (literally and figuratively) in the long-term.""}",,,,,,,,,,,,,,,,,,,,
w436f611,,742990,survey-text,80924,"{""Q0"":""I would reveal the price of as many options as I can to make the most informed decision. I would also consider path ways that intertwine, such as the decision to go to New Reach or Sandbluff after choosing Windy Port. ""}",,,,,,,,,,,,,,,,,,,,
wd537f4a,,492250,survey-text,90005,"{""Q0"":""Click the first two nodules in each path and then click the last nodules for the paths which give the greatest reward or lowest loss.""}",,,,,,,,,,,,,,,,,,,,
wd537f4a,,587794,survey-text,94522,"{""Q0"":""Sometimes a small risk or loss is necessary for a large reward or payoff."",""Q1"":""Investing in a new business.  The upfront cost could be outweighed by the money you will earn in the long run."",""Q2"":""You have to choose a path in life and decide what you're willing to give up (if anything) in the short term in order to gain in the long term.""}",,,,,,,,,,,,,,,,,,,,
wd537f4a,,685255,survey-text,96449,"{""Q0"":""The opportunity cost of a higher hotel rate could mean a faster travel time.""}",,,,,,,,,,,,,,,,,,,,
wd6f959f,,254775,survey-text,21197,"{""Q0"":""Clicking a node that would be the last one to land on""}",,,,,,,,,,,,,,,,,,,,
wd6f959f,,399347,survey-text,143551,"{""Q0"":""Sometimes we have to go through things in order to accomplish great things- meaning losing some money in the game to end up earning more in the end. Life is full of up and downs. Success is not linear. "",""Q1"":""Going through the hardships of graduate school to ultimately make my life better by earning more money and having a career I love. "",""Q2"":""Losing a little bit of money in the short term/mid term nodes to earn a lot in the long term nodes. ""}",,,,,,,,,,,,,,,,,,,,
wd6f959f,,428970,survey-text,28600,"{""Q0"":""Clicking the nodes to see prices. ""}",,,,,,,,,,,,,,,,,,,,
w8008c02,,304085,survey-text,39939,"{""Q0"":""Only make choices that are for the increase of money.""}",,,,,,,,,,,,,,,,,,,,
w8008c02,,837082,survey-text,531991,"{""Q0"":""A lot of choices that were made were because of the outcome. It may have been good in the beginning, but could've been bad at the end."",""Q1"":""Choosing where to live."",""Q2"":""I recently had to choose where to live and even though I opted for the one that cost the most, but in the end it was too much.""}",,,,,,,,,,,,,,,,,,,,
w8008c02,,900495,survey-text,62395,"{""Q0"":""Check through the hotels first and not just go by random chance.""}",,,,,,,,,,,,,,,,,,,,
w9148fde,,334510,survey-text,31345,"{""Q0"":""Start at the end points to find where the highest ending rewards are.""}",,,,,,,,,,,,,,,,,,,,
w9148fde,,471424,survey-text,135902,"{""Q0"":""Spending an extra dollar to guarantee a large profit can be good planning."",""Q1"":""Every step doesn't need to be a guarantee, the end goal should be where your profit comes from."",""Q2"":""You can make cautious steps to find your best endgame. Setting yourself up for success is crucial.""}",,,,,,,,,,,,,,,,,,,,
w9148fde,,580755,survey-text,108324,"{""Q0"":""Find the cheapest hotel/flight option from the end points, then book the quickest route there.""}",,,,,,,,,,,,,,,,,,,,
w758c847,,453964,survey-text,46503,"{""Q0"":""deduce what the other node will have on it based on the one i just clicked.""}",,,,,,,,,,,,,,,,,,,,
w758c847,,578307,survey-text,123296,"{""Q0"":""you have to decide if the long term consequences are worth the short term ones"",""Q1"":""deciding whether or not to go to graduate school, in the short term itll be a lot of work and money, but in the long term itll help me get a better job."",""Q2"":""the short term consequences may be bad or not what i want, but the long term consequences will justify the choice.""}",,,,,,,,,,,,,,,,,,,,
w758c847,,657289,survey-text,77958,"{""Q0"":""find the cheapest hotel in the first three cities, and then go to that one and make choices after that.""}",,,,,,,,,,,,,,,,,,,,
w8d8f78a,,511481,survey-text,29967,"{""Q0"":""Once you find the high value ($48) stop clicking and go that route.""}",,,,,,,,,,,,,,,,,,,,
w8d8f78a,,665490,survey-text,152981,"{""Q0"":""Every route (decision) possible is going to have pros and cons (good + money, and bad - money)."",""Q1"":""Selling our house. Pros we make a profit off of our house. Cons, we have no place to live now."",""Q2"":""We made a decision and now we are living through the consequences whether they are good or bad. Thinking of the possible solution (routes) helps make the best possible choice.""}",,,,,,,,,,,,,,,,,,,,
w8d8f78a,,734025,survey-text,67519,"{""Q0"":""Try to see the prices up front to quickly chose which route would be the best.""}",,,,,,,,,,,,,,,,,,,,
w4f9dd0b,,412400,survey-text,26583,"{""Q0"":""Stop checking the nodes as soon as you find a positive one.""}",,,,,,,,,,,,,,,,,,,,
w4f9dd0b,,481963,survey-text,68501,"{""Q0"":""Your short term decisions affect how much you get out of life."",""Q1"":""Trusting the process when working towards a big goal."",""Q2"":""There might be setbacks on the way to getting a bigger reward.""}",,,,,,,,,,,,,,,,,,,,
w4f9dd0b,,513218,survey-text,30246,"{""Q0"":""To stop checking prices when you find a low one.""}",,,,,,,,,,,,,,,,,,,,
wb8f7f59,,268942,survey-text,38994,"{""Q0"":""Look at the long-term choice. Also, no of clicks does not reduce your cash as much as a poor decision, so more clicks is better than fewer""}",,,,,,,,,,,,,,,,,,,,
wb8f7f59,,331704,survey-text,61757,"{""Q0"":""Look at the long term consequences, not just the short term"",""Q1"":""Perhaps sticking in a job that will get you to where you want to be, even if you aren't the happiest right now"",""Q2"":""It is similar because you can choose to be rewarded now or later""}",,,,,,,,,,,,,,,,,,,,
wb8f7f59,,383938,survey-text,51231,"{""Q0"":""To look quickly over the variety of costs/consequences, not just the first step/ leg of the trip""}",,,,,,,,,,,,,,,,,,,,
we378bf9,,694946,survey-text,70874,"{""Q0"":""The first 2 dots will help indicate if a risk is worth it. If there is $48 on one of the end the risk is usually worth it.""}",,,,,,,,,,,,,,,,,,,,
we378bf9,,815828,survey-text,119873,"{""Q0"":""Don't not take any chances just because there might be some loss at the beginning."",""Q1"":""Switching to a job that promises higher pay after 1 year is reached. "",""Q2"":""I had to make a lower amount of money for 1 year and before I could make way more.""}",,,,,,,,,,,,,,,,,,,,
we378bf9,,1013136,survey-text,196302,"{""Q0"":""Pick the path with the least days even if its not the cheapest hotels.""}",,,,,,,,,,,,,,,,,,,,
w75825fc,,352394,survey-text,42002,"{""Q0"":""I clicked on the end nodes to find a $48 node. I stopped as soon as I found one and would risk whatever the short-term costs were to get there.""}",,,,,,,,,,,,,,,,,,,,
w75825fc,,546853,survey-text,193454,"{""Q0"":""If you can ensure that the end benefit is greater than the costs of the path, you should take that path. "",""Q1"":""Saving money - if I could see a significant benefit at the end of my efforts, the short-term sacrifices would be worth it. "",""Q2"":""If I'm working to save money to buy a house, the house is the goal/end node. If that's my goal, the short-term sacrifices (such as not going out to dinner as much or putting money toward debt to fix my credit score) feel less like sacrifices as much as they feel like stepping stones toward the larger gain.""}",,,,,,,,,,,,,,,,,,,,
w75825fc,,730122,survey-text,182250,"{""Q0"":""The lesson I learned is that if the goal is to get to the airport and to spend as few days as possible on the island, then it doesn't matter which route I take and it doesn't matter which airport I fly out of, as long as I minimize the amount of stops on the route. So if the shortest possible route is 3 stops (including airport) any of those routes will work just fine.""}",,,,,,,,,,,,,,,,,,,,
wcfc5eff,,582261,survey-text,196874,"{""Q0"":""I clicked the ending nodules until I found the 48 option. Sometimes it only took one or two clicks to find it. Once I found it, the path was much easier to achieve and there was more pay off than tracking blindly. When it relates to life, the outcome that makes you happiest is worth the potential monetary loss. It will pay off in the end. ""}",,,,,,,,,,,,,,,,,,,,
wcfc5eff,,739163,survey-text,155874,"{""Q0"":""Look at the end goal - Though it may cost some money to achieve, it will pay off if you invest in the right path. "",""Q1"":""As a college student, a degree costs quite a lot. Though it'll cost me now, the pay off is better because I[ll have the tools I need to succeed in my career and make even more money than I paid for my degree."",""Q2"":""My situation is similar in that there is a cause and effect of making monetary decisions. I can't quite see the ending goal yet, but I am in the first and second steps of the web currently.""}",,,,,,,,,,,,,,,,,,,,
wcfc5eff,,814702,survey-text,74510,"{""Q0"":""Look at the ending goal and how the first and second steps will affect the final monetary amount.""}",,,,,,,,,,,,,,,,,,,,
wef2d981,,385945,survey-text,18300,"{""Q0"":""Take a chance on going the opposite direction of a negative value.""}",,,,,,,,,,,,,,,,,,,,
wef2d981,,520245,survey-text,133284,"{""Q0"":""Sometimes you gotta take a risk for a bigger reward."",""Q1"":""Stock market investments"",""Q2"":""You buy a little and see how it goes, and then you buy more if it makes profit.""}",,,,,,,,,,,,,,,,,,,,
wef2d981,,567310,survey-text,46039,"{""Q0"":""Figure out the price ahead of time before making a decision""}",,,,,,,,,,,,,,,,,,,,
w46c341b,,570988,survey-text,152887,"{""Q0"":""First you click all the outside nodes to see if the $48 is found. If its in one of those nodes, then all other clicks are unnecessary. Is there are only $24 or $-24 in the outside nodes then the second outermost nodes should be clicked. The path with the lowest deficit or highest reward should be chosen regardless of the innermost node value. Innermost node value shouldn't be clicked ever. ""}",,,,,,,,,,,,,,,,,,,,
w46c341b,,863520,survey-text,291487,"{""Q0"":""It is better to spend more money on things that will yield a higher reward than spending the same amount on things that will only allow you to \""break even\"""",""Q1"":""Spending more to buy a house because there is a greater reward in the end than spending little amounts more frequently with little reward. "",""Q2"":""This is similar because the outside nodes required you to spend more but in the end the reward was greater. The spending clicks on the innermost nodes couldn't give as much of a reward even though you were spending about the same each round to uncover their values as the first move. ""}",,,,,,,,,,,,,,,,,,,,
w46c341b,,941822,survey-text,77264,"{""Q0"":""The further away from the airport will probably have the best reward in terms of saving money as the game demonstrated. ""}",,,,,,,,,,,,,,,,,,,,
wcb3f957,,487676,survey-text,20351,"{""Q0"":""be patient""}",,,,,,,,,,,,,,,,,,,,
wcb3f957,,613741,survey-text,125042,"{""Q0"":""try to collect as much information as possible before acting"",""Q1"":""picking out a graduate school"",""Q2"":""we may not always know what the value will be initially, but we choose what values to pursue""}",,,,,,,,,,,,,,,,,,,,
wcb3f957,,687985,survey-text,73235,"{""Q0"":""Pursue information based on instinct""}",,,,,,,,,,,,,,,,,,,,
wec8cfbb,,331485,survey-text,38392,"{""Q0"":""Look at the long-term consequences (the last node) and find the one with the most value ($48). If the two highest are the same, focus on the medium-term consequences.""}",,,,,,,,,,,,,,,,,,,,
wec8cfbb,,420311,survey-text,87817,"{""Q0"":""When you're making a big decision, look at the long-term consequences- they affect you the greatest. If you lose a little bit in the short-term, it doesn't matter if you gain a lot in the long-term."",""Q1"":""Staying at a job even if I'm not being paid as highly as I could be somewhere else. If I look at the long-term, I'm saving up vacation, I have great insurance and the maternity leave is looking like some of the best I\""ll get."",""Q2"":""I could just quit and find a higher paying job now- that would be easy in the short-term. However, in the long-term I might end up at $-48!""}",,,,,,,,,,,,,,,,,,,,
wec8cfbb,,456693,survey-text,35363,"{""Q0"":""I can work backwards, I can value efficiency over low price.""}",,,,,,,,,,,,,,,,,,,,
w68ebbdb,,298895,survey-text,98162,"{""Q0"":""Reveal the nodes at the ends of each path (or until you get one that's 48) and go to the highest regardless of the middle values.""}",,,,,,,,,,,,,,,,,,,,
w68ebbdb,,479138,survey-text,179231,"{""Q0"":""Focus on long-term goals, and be willing to make short term sacrifices in order to get the maximum rewards/reach your long term goals."",""Q1"":""Taking difficult classes in school will be difficult in the short term, but is necessary in order to get my degree faster and be able to capitalize on the skills I gain more quickly."",""Q2"":""I'm taking losses in the first \""nodes\"" by costing myself time and energy in order to reach the final node which is a degree.""}",,,,,,,,,,,,,,,,,,,,
w68ebbdb,,584410,survey-text,104264,"{""Q0"":""Spending the time to check the prices of the most expensive hotels (those near airports) as opposed to wasting time where the price will likely be less varied.""}",,,,,,,,,,,,,,,,,,,,
w58b430d,,661406,survey-text,25919,"{""Q0"":""I can just click on the end nodes to decide where I want to go.""}",,,,,,,,,,,,,,,,,,,,
w58b430d,,770623,survey-text,108207,"{""Q0"":""You can make a decision that seems good in the short term but it may end up bad in the long term."",""Q1"":""I may really want a huge bowl of pasta right now but if I eat it all I might feel sick later."",""Q2"":""A decision that sounds good at first might end up badly in the long run.""}",,,,,,,,,,,,,,,,,,,,
w58b430d,,825737,survey-text,54104,"{""Q0"":""Start with how much the hotels in each airport city cost.""}",,,,,,,,,,,,,,,,,,,,
w7cf8fe3,,250494,survey-text,39170,"{""Q0"":""If the first choice you click is a good one, go with that one rather than clicking the other as well.""}",,,,,,,,,,,,,,,,,,,,
w7cf8fe3,,319099,survey-text,67598,"{""Q0"":""If a good option presents itself, don't be afraid to take the leap and do it."",""Q1"":""Picking a job."",""Q2"":""There are a lot of unknowns and you might end up losing but you could also end up winning and you won't know until you try.""}",,,,,,,,,,,,,,,,,,,,
w7cf8fe3,,431277,survey-text,111172,"{""Q0"":""If a good option presents itself right away take that one.""}",,,,,,,,,,,,,,,,,,,,
wc10e18c,,711761,survey-text,46583,"{""Q0"":""once you have a green number follow that path, or a low negative number then follow that path ""}",,,,,,,,,,,,,,,,,,,,
wc10e18c,,819672,survey-text,106881,"{""Q0"":""your first move is a short term move, the second move after that will determine your long term reward "",""Q1"":""moving up in a job "",""Q2"":""you may not earn as much as you'd like right away but when you put in the time and effort you may end up with an end goal met. ""}",,,,,,,,,,,,,,,,,,,,
wc10e18c,,955840,survey-text,135138,"{""Q0"":""starting at one of the first stops check to see which on is the least expensive, and then follow the path of least expensive but possibly fastest. ""}",,,,,,,,,,,,,,,,,,,,
w27312c7,,578323,survey-text,83076,"{""Q0"":""As soon as I see a decent gain I go for it rather than spending more to find something better.  Slower gains but lower risk""}",,,,,,,,,,,,,,,,,,,,
w27312c7,,705183,survey-text,125811,"{""Q0"":""slow and steady wins the race"",""Q1"":""I am not a gambler because I do not like high risk situations. I make decisions based on perceived safety and low consequences"",""Q2"":""I play the game like how I make decisions in life, happy with smaller rewards and avoiding risk""}",,,,,,,,,,,,,,,,,,,,
w27312c7,,807177,survey-text,100984,"{""Q0"":""Go with the fewest stops and choose one or two at most to determine relative cost""}",,,,,,,,,,,,,,,,,,,,
w15eaea6,,301501,survey-text,20482,"{""Q0"":""I think it is worth clicking all the nodes to ensure that you find the best path forward""}",,,,,,,,,,,,,,,,,,,,
w15eaea6,,374023,survey-text,71489,"{""Q0"":""Sometimes little risks have big payoffs and sometimes they have bigger consequences"",""Q1"":""Exploring career options feels like something where I want to see all of the nodes and make the best decision possible for myself"",""Q2"":""I want to be able to know all possibilities, short and long term, before making a decision, so I can have the best net outcome""}",,,,,,,,,,,,,,,,,,,,
w15eaea6,,418824,survey-text,43774,"{""Q0"":""I would eliminate the most expensive route and then explore the each stop to find the cheapest""}",,,,,,,,,,,,,,,,,,,,
w987d0e2,,726241,survey-text,28382,"{""Q0"":""i genuinely dont understand how to find a good path.""}",,,,,,,,,,,,,,,,,,,,
w987d0e2,,821702,survey-text,94444,"{""Q0"":""short term decisions dont have to effect our long term decisions."",""Q1"":""deciding on if i should go to school. "",""Q2"":""who knows where the path of schooling will take me. it is just the first step to the rest of my life\n""}",,,,,,,,,,,,,,,,,,,,
w987d0e2,,906953,survey-text,84221,"{""Q0"":""try to find the least amount of stops""}",,,,,,,,,,,,,,,,,,,,
w4936c23,,983597,survey-text,17266,"{""Q0"":""Seeing what the most immediate risks are within your first move of the spider""}",,,,,,,,,,,,,,,,,,,,
w4936c23,,1052793,survey-text,68193,"{""Q0"":""You can't get to the further pods without hitting the closer ones ie worry more about the immediate future rather than the long term too much"",""Q1"":""Focusing on what is immediately at hand ie completing small daily tasks in order to make it to the bigger picture"",""Q2"":""You have to get through the first pods in order to get to anything else""}",,,,,,,,,,,,,,,,,,,,
w4936c23,,1114039,survey-text,60242,"{""Q0"":""minimize extra time spent clicking on unnecessary points""}",,,,,,,,,,,,,,,,,,,,
w2e6b0cc,,325798,survey-text,50566,"{""Q0"":""You can click the end nodes and if you click all of the nodes except for 48, you know you should take that path""}",,,,,,,,,,,,,,,,,,,,
w2e6b0cc,,492676,survey-text,165865,"{""Q0"":""There may be a path you have to take in life that will be hard in the short run but will eventually pay off, so it may be beneficial to take the hit now so that you are better off in the future/"",""Q1"":""One example from my own life is moving to New York after college (that is where I got a job offer)."",""Q2"":""This situation is similar because early on in my career, I am not expecting to be paid that well and I may struggle financially for a few years. However, if I stick with my job, I have great opportunities for advancement and may find myself very happy that I took that chance straight out of college and moved to an unfamiliar place.""}",,,,,,,,,,,,,,,,,,,,
w2e6b0cc,,595721,survey-text,102021,"{""Q0"":""Depending on the max amount a hotel may cost, it would be a good idea to click a city and if it shows the maximum amount, avoid any path that includes that city. You may not get the most cost-effective path every time, but by doing this you can at least avoid the most expensive paths""}",,,,,,,,,,,,,,,,,,,,
wd031652,,265615,survey-text,29503,"{""Q0"":""only clicking on the last 2 of each grouping""}",,,,,,,,,,,,,,,,,,,,
wd031652,,325183,survey-text,58554,"{""Q0"":""even if there are mid-term losses, there can still be long-term gains"",""Q1"":""taking out loans for college"",""Q2"":""You have to spend a lot of money for the degree, but once you have it you can gain more in a job in the long run""}",,,,,,,,,,,,,,,,,,,,
wd031652,,388418,survey-text,62231,"{""Q0"":""only look at the prices of the last few cities""}",,,,,,,,,,,,,,,,,,,,
w86ac9fc,,368779,survey-text,37606,"{""Q0"":""Try to find the $48 reward and then head to that one. The long term reward will pay for the potential short term costs.""}",,,,,,,,,,,,,,,,,,,,
w86ac9fc,,617848,survey-text,248062,"{""Q0"":""Figure out your end point first and then take incremental steps to get there."",""Q1"":""This works well in situations with very controlled variables. An example would be me preparing for a single test in school. I made flash cards and quizzed myself until I was as sure of my preparation as possible. Unfortunately, most real life scenarios have far more variables than this situation."",""Q2"":""Me prepping for my test is similar in that there is a singular goal to focus on and a fairly objective set of costs and benefits. The rules are explained fairly well and if you follow them, you will succeed. This is unlike many real life scenarios. ""}",,,,,,,,,,,,,,,,,,,,
w86ac9fc,,762141,survey-text,143282,"{""Q0"":""I would first pick a budget in order to reduce variables like in the game. Then I would choose a hotel in the final city and work backwards. I wouldn't worry too much about if I found the least expensive hotel in each city, but I would make sure that I found one that could fit in the budget so that the overall pros of staying in the budget and saving time were balanced again the con of not finding the very cheapest hotel.""}",,,,,,,,,,,,,,,,,,,,
w20070e3,,592276,survey-text,33777,"{""Q0"":""by making sure hit the nodes correctly ""}",,,,,,,,,,,,,,,,,,,,
w20070e3,,841701,survey-text,248413,"{""Q0"":""i will describe it in the form of telling the friend to look well before he or she leaps"",""Q1"":""none"",""Q2"":""none""}",,,,,,,,,,,,,,,,,,,,
w20070e3,,878883,survey-text,36145,"{""Q0"":""i will make sure i find possible measure to get to the correct destination""}",,,,,,,,,,,,,,,,,,,,
w4b8922c,,393749,survey-text,10219,"{""Q0"":""Look at the final node/long term choice""}",,,,,,,,,,,,,,,,,,,,
w4b8922c,,472562,survey-text,77802,"{""Q0"":""Think about long term goals instead of short term ones"",""Q1"":""Thinking about your career - you might have to start out doing a more menial job you don't love that doesn't pay as much as you want, but it might lead to room for growth in the long term."",""Q2"":""This is similar to the game because you might have to take some losses in the early stages of your career, but the long term goal makes up for it.""}",,,,,,,,,,,,,,,,,,,,
w4b8922c,,538034,survey-text,64463,"{""Q0"":""I would see how much the final hotels cost, then work my way back from there.""}",,,,,,,,,,,,,,,,,,,,
w65d4ecf,,343466,survey-text,45445,"{""Q0"":""Looking only at the last values in the line of options.""}",,,,,,,,,,,,,,,,,,,,
w65d4ecf,,401221,survey-text,56724,"{""Q0"":""Analyze which decision will ultimately be met with the fewest loss."",""Q1"":""I am not sure."",""Q2"":""I am not sure.""}",,,,,,,,,,,,,,,,,,,,
w65d4ecf,,432400,survey-text,30151,"{""Q0"":""Find the cheapest routes.""}",,,,,,,,,,,,,,,,,,,,
w1a7b267,,442301,survey-text,76698,"{""Q0"":""You can click on the very end of a path rather than just the next pod.""}",,,,,,,,,,,,,,,,,,,,
w1a7b267,,601068,survey-text,157755,"{""Q0"":""Focus on the end goal and not just the little decisions in between."",""Q1"":""When trying to get a job, i was too focused on the little setbacks in between instead of focusing on the end goal."",""Q2"":""I clicked on the next pod rather than the end of the path.""}",,,,,,,,,,,,,,,,,,,,
w1a7b267,,660440,survey-text,58351,"{""Q0"":""Look at the end destination and work on finding a path from there""}",,,,,,,,,,,,,,,,,,,,
w2ab86e4,,235173,survey-text,18599,"{""Q0"":""Click on the last node of a path""}",,,,,,,,,,,,,,,,,,,,
w2ab86e4,,360688,survey-text,124510,"{""Q0"":""The long term consequences of our actions have the most value and effect on our life."",""Q1"":""Choosing a career path"",""Q2"":""Short term might be the school you choose to go to, but longterm would be the major you choose. The major you choose will effect which jobs you can get for your entire life.""}",,,,,,,,,,,,,,,,,,,,
w2ab86e4,,422806,survey-text,61114,"{""Q0"":""Find out which airport has the cheapest hotel""}",,,,,,,,,,,,,,,,,,,,
w08f555b,,380351,survey-text,48258,"{""Q0"":""Click on the spaces that you can potentially finish on rather than clicking on every single space""}",,,,,,,,,,,,,,,,,,,,
w08f555b,,493313,survey-text,111928,"{""Q0"":""Plan accordingly and focus on the long term"",""Q1"":""Investments vs short term pleasures. "",""Q2"":""I think it can important to focus on the end goal rather than the path. Sometimes that means taking the harder path (i am bad at explaining things)""}",,,,,,,,,,,,,,,,,,,,
w08f555b,,529922,survey-text,35597,"{""Q0"":""Think quickly but do not waste time""}",,,,,,,,,,,,,,,,,,,,
w0cfebce,,456703,survey-text,46826,"{""Q0"":""Explore the paths with the most reward or smallest cost first, but ultimately it's about finding the best possible long-term value.""}",,,,,,,,,,,,,,,,,,,,
w0cfebce,,584632,survey-text,126913,"{""Q0"":""It's worth the investment to find the best possible final outcome."",""Q1"":""Trying to determine if a job I take now is gonna set me on a good path to achieve my overall goals."",""Q2"":""You have to consider what it takes to get to the maximum possible reward at the end, even if in the short or mid-term you feel you're losing out.""}",,,,,,,,,,,,,,,,,,,,
w0cfebce,,645493,survey-text,59843,"{""Q0"":""Check the first three closest cities to determine which one has the smallest cost, then continue on from that location.""}",,,,,,,,,,,,,,,,,,,,
wf481f8c,,390741,survey-text,35259,"{""Q0"":""Use all of your clicks until you identify the location of the highest payment""}",,,,,,,,,,,,,,,,,,,,
wf481f8c,,472233,survey-text,80479,"{""Q0"":""Have a longterm vision of what you want, use resources you have now to find the route and persist"",""Q1"":""Investing in the right education"",""Q2"":""upfront investment for the right certifications/education will lead you on a path to success ""}",,,,,,,,,,,,,,,,,,,,
wf481f8c,,547141,survey-text,73883,"{""Q0"":""Find the least expensive final route and make sure that outweighs other potential costs on the trip""}",,,,,,,,,,,,,,,,,,,,
w115e21c,,261980,survey-text,32255,"{""Q0"":""Remember what was there before.""}",,,,,,,,,,,,,,,,,,,,
w115e21c,,331035,survey-text,68015,"{""Q0"":""Learn from your mistakes."",""Q1"":""When someone betrays you you don't give them a chance to do it again."",""Q2"":""You don't make bad decisions a second time. Learn and move on.""}",,,,,,,,,,,,,,,,,,,,
w115e21c,,374610,survey-text,42542,"{""Q0"":""If it was cheap before it may not be the same next visit.""}",,,,,,,,,,,,,,,,,,,,
w186fe7c,,238974,survey-text,23785,"{""Q0"":""Just pick any direction. The clicks are only relevant for the first move.""}",,,,,,,,,,,,,,,,,,,,
w186fe7c,,310940,survey-text,70955,"{""Q0"":""Short term optimization may come at the expense of long term optimization."",""Q1"":""What seems like a good idea in your 20s may set you up for misery in your 30s and beyond."",""Q2"":""The first clicks can tell where to go, but after that it is murky""}",,,,,,,,,,,,,,,,,,,,
w186fe7c,,379703,survey-text,67756,"{""Q0"":""I can't think of a good solution to this.""}",,,,,,,,,,,,,,,,,,,,
w3bdae25,,301613,survey-text,79662,"{""Q0"":""Clicking on just one of the three choices can give you about a 50/50 chance of knowing what the other two could possibly be. For example if you click on one and it is -4, that means that the possibility of one of the other nodes is positive is more likely.""}",,,,,,,,,,,,,,,,,,,,
w3bdae25,,448413,survey-text,145784,"{""Q0"":""There are short term consequences that ultimately can lead you to a similar path, but ultimately the short term choices can lead you to much more prosperity. There is always a chance for redemption."",""Q1"":""Possibly choosing a job. You can start a new job that has a lower salary but it is putting you on a pathway to a better timeline of job growth, therefore giving you a better outcome than you might have had if you had stayed at a higher paying job originally."",""Q2"":""An initial \""bad\"" or bad-seeming choice is not the end but merely the beginning of a series of choices that can lead you to an ultimate pay-off that is positive.""}",,,,,,,,,,,,,,,,,,,,
w3bdae25,,498517,survey-text,49085,"{""Q0"":""Only click on one of the first \""stops\"" on a route to help determine the possibility of the other two \""stops.\""""}",,,,,,,,,,,,,,,,,,,,
wec74f3b,,377760,survey-text,48723,"{""Q0"":""Learn the patterns of where the best path usually is.\n""}",,,,,,,,,,,,,,,,,,,,
wec74f3b,,489672,survey-text,110867,"{""Q0"":""I have learned not to jump blindly into a path and to weigh out the consequences of each step. "",""Q1"":""Deciding on a job; which one has the best long term benefits"",""Q2"":""Some jobs might look appealing initially, but they could end up not being as beneficial in the end. ""}",,,,,,,,,,,,,,,,,,,,
wec74f3b,,540361,survey-text,49678,"{""Q0"":""See which of the hotels in the airport cities is cheapest""}",,,,,,,,,,,,,,,,,,,,
w5815157,,269583,survey-text,19875,"{""Q0"":""I click on the end nodes to see which will get me the most money at the very end.""}",,,,,,,,,,,,,,,,,,,,
w5815157,,368157,survey-text,97556,"{""Q0"":""We should think about what the final result will look like when we go for new opportunities. It's not a good idea to risk a lot of money just to make a little bit of quick cash."",""Q1"":""I run my own business, so I often tell myself not to focus on things that will make me quick cash. I should focus on ways to create longevity and make money in the long run."",""Q2"":""I want to focus on the endgame.""}",,,,,,,,,,,,,,,,,,,,
w5815157,,413188,survey-text,44026,"{""Q0"":""Maybe I could mainly look at the cities at the end?""}",,,,,,,,,,,,,,,,,,,,
w36aaed3,,3743289,survey-text,20858,"{""Q0"":""select the long term options and stop selecting once you find the best option""}",,,,,,,,,,,,,,,,,,,,
w36aaed3,,3872234,survey-text,127939,"{""Q0"":""I would advise someone to focus on the end steps rather than the setbacks"",""Q1"":""career would be a good way to apply this- take a job that gets you experience for a lower pay but is focused on a higher achievement in the long run"",""Q2"":""if I want to change careers, I might need to take what feels like a step in the wrong (negative/red) direction, but it could pay off at the end (high value, positive)""}",,,,,,,,,,,,,,,,,,,,
w36aaed3,,3930543,survey-text,57295,"{""Q0"":""start at the airport and at stops that hit multiple options to lessen the amount of time it takes to find the best route""}",,,,,,,,,,,,,,,,,,,,
w6ae128d,,252404,survey-text,14250,"{""Q0"":""Look at the end value options""}",,,,,,,,,,,,,,,,,,,,
w6ae128d,,336688,survey-text,83259,"{""Q0"":""Try to see the bigger picture, don't focus too much on short term steps. "",""Q1"":""Future career moves - it's better to figure out the possible high end of my earnings before I start making day to day decisions that affect my employment at the moment. "",""Q2"":""There are small short term risks in making quick decisions which could end up being a much bigger deal down the line. ""}",,,,,,,,,,,,,,,,,,,,
w6ae128d,,378133,survey-text,40437,"{""Q0"":""Try to look at the long game not the short term choices. ""}",,,,,,,,,,,,,,,,,,,,
w6ba1288,,358086,survey-text,35255,"{""Q0"":""Click on the highlighted nodes to see the end results for each""}",,,,,,,,,,,,,,,,,,,,
w6ba1288,,480072,survey-text,120972,"{""Q0"":""Think about how valuable you want the end result of your decision making to be in your life"",""Q1"":""Choosing a career path"",""Q2"":""When choosing a career path, sometimes people base their decisions on the maximum amount of money (or other measurable factors such as happiness) that they will achieve in the end""}",,,,,,,,,,,,,,,,,,,,
w6ba1288,,550241,survey-text,69161,"{""Q0"":""Check how much the mid-point hotels cost""}",,,,,,,,,,,,,,,,,,,,
wea48ca2,,499703,survey-text,38443,"{""Q0"":""You can click on the highlighted nodes first to see how much you will win or lose at the end""}",,,,,,,,,,,,,,,,,,,,
wea48ca2,,571300,survey-text,70581,"{""Q0"":""Think about the long term "",""Q1"":""For spending habits that can significantly impact my finances"",""Q2"":""While something may benefit you in the short run, its the long run that can have serious consequences""}",,,,,,,,,,,,,,,,,,,,
wea48ca2,,713519,survey-text,141209,"{""Q0"":""Look at the cities closer to the airport and see how much those cost first""}",,,,,,,,,,,,,,,,,,,,
wa5f8455,,425018,survey-text,25834,"{""Q0"":""Consider the cost-benefit analysis, even if it's not the full $48""}",,,,,,,,,,,,,,,,,,,,
wa5f8455,,460044,survey-text,33991,"{""Q0"":""Follow the guidance of people who know more than you"",""Q1"":""Seeking out mentorships at work"",""Q2"":""Relying on the directions provided to make the best decisions.""}",,,,,,,,,,,,,,,,,,,,
wa5f8455,,489494,survey-text,28441,"{""Q0"":""Make inferences about the prices of the unknown hotels based on the information given.""}",,,,,,,,,,,,,,,,,,,,
w67549cc,,354906,survey-text,16705,"{""Q0"":""Start by clicking on the farthest nodes.""}",,,,,,,,,,,,,,,,,,,,
w67549cc,,395041,survey-text,39118,"{""Q0"":""Think about the longterm, not just the short term. "",""Q1"":""Deciding on whether or not to go to grad school. "",""Q2"":""It requires thinking ahead. ""}",,,,,,,,,,,,,,,,,,,,
w67549cc,,443753,survey-text,47655,"{""Q0"":""First check the prices of the hotels in the cities with the airport, then plan the earlier steps of your route.""}",,,,,,,,,,,,,,,,,,,,
wfbdb3c1,,336395,survey-text,42648,"{""Q0"":""You do not have to click on all of the nodes, just the ones in front of you when you hit a fork in the road.""}",,,,,,,,,,,,,,,,,,,,
wfbdb3c1,,442636,survey-text,105233,"{""Q0"":""It's better to put in the extra effort to make sure you are on the right path"",""Q1"":""Trying to decide on a major at university by taking different classes"",""Q2"":""You have to spend little time deciding which path to take and choosing which classes are best for you""}",,,,,,,,,,,,,,,,,,,,
wfbdb3c1,,511506,survey-text,67860,"{""Q0"":""Take the time to study the structure of the map before you decide anything""}",,,,,,,,,,,,,,,,,,,,
wc947fac,,496746,survey-text,37158,"{""Q0"":""I learned to just check the nodes at the very end of the paths because that's where to biggest rewards came from.""}",,,,,,,,,,,,,,,,,,,,
wc947fac,,643233,survey-text,145479,"{""Q0"":""I would describe it was looking at your life and where you want to end up. All the little things that might get in your way will discourage you, but the end goal will be worth it."",""Q1"":""I took an AP Psychology class in high school and although it was a tough journey it really prepared me for what was to come in college where I'm working on getting my degree in Psychology."",""Q2"":""They both gave end goals that are very rewarding with things along the way that will discourage you. ""}",,,,,,,,,,,,,,,,,,,,
wc947fac,,816379,survey-text,172139,"{""Q0"":""I would check the price of the place that has the airport because that is where I would eventually end up. I don't have to stop at every city and know what the prices are, but I will have to stop at the city that has the airport. ""}",,,,,,,,,,,,,,,,,,,,
wfbddbcf,,245362,survey-text,16275,"{""Q0"":""start by finding a positive value furthest away""}",,,,,,,,,,,,,,,,,,,,
wfbddbcf,,304867,survey-text,58471,"{""Q0"":""It is worth considering both the long and short term view - placing a greater emphasis and prioritizing higher value"",""Q1"":""Selecting a lower paying job with a higher potential reward down the line"",""Q2"":""I actively had to pick a seemingly less attractive starting salary with the knowledge that for my long term health and prosperity it was worth it.""}",,,,,,,,,,,,,,,,,,,,
wfbddbcf,,366673,survey-text,60761,"{""Q0"":""Finding out the cost at the most expensive cities and avoid them""}",,,,,,,,,,,,,,,,,,,,
wfbbc7af,,650682,survey-text,28113,"{""Q0"":""Base your overall decision making on the first step you take. ""}",,,,,,,,,,,,,,,,,,,,
wfbbc7af,,799284,survey-text,147555,"{""Q0"":""Make your first decision wisely, because it will effect the overall outcome of the experience. "",""Q1"":""When choosing a career path, the initial decision you make will effect your life long-term. So it is best do put a lot of thought into it. "",""Q2"":""Your initial decision will effect the overall outcome/benefits you receive. ""}",,,,,,,,,,,,,,,,,,,,
wfbbc7af,,911675,survey-text,111300,"{""Q0"":""Make sure to make the most efficient decision when choosing a hotel or making early decisions in the travel process. ""}",,,,,,,,,,,,,,,,,,,,
w6a75588,,505600,survey-text,134592,"{""Q0"":""I can find the values of the nodes closest to me in the center starting position. Node values with positive amounts usually led to other nodes with positive values. ""}",,,,,,,,,,,,,,,,,,,,
w6a75588,,1052336,survey-text,545722,"{""Q0"":""I would tell them to start projects and endeavors by first investing appropriate amount of time and effort into preparation. Investment cost of $1 to reveal a node's value was relatively low compared to the returns. "",""Q1"":""This strategy might work well for making planning decisions. Preparation and appropriate investments typically lead to better outcomes. For example, I often invest a block of time on the weekends to really prepare for my week ahead. "",""Q2"":""The goal for almost anything is to maximize returns efficiently, therefore plans for projects and goal attainment often require sufficient planning and startup resources. In the Web of Cash game, I was able to use my initial funds to find the most lucrative path through the nodes. ""}",,,,,,,,,,,,,,,,,,,,
w6a75588,,1257235,survey-text,203884,"{""Q0"":""In the Web of Cash game, I learned that positive values were usually surrounded by other positive values. This game could be similar in the sense that cheaper hotels are grouped with other cheaper hotels. However, what I took from the Web of Cash game was that the best results came from taking my time to really evaluate my options, and that planning something quickly can lead to blunders. ""}",,,,,,,,,,,,,,,,,,,,
w9aa2df4,,339805,survey-text,44582,"{""Q0"":""The dollar spent on clicks is worth it considering the amount of the award at the end of the web. ""}",,,,,,,,,,,,,,,,,,,,
w9aa2df4,,442654,survey-text,101840,"{""Q0"":""Short term pitfalls can still lead to longterm success"",""Q1"":""I got a job in teaching, and it was not a grade I enjoyed but it was with the school district I wanted to work for. After 3 years in the grade I didn't enjoy, I was able to move to my dream job. "",""Q2"":""By taking the grade I didn't like, I \""lost money,\"" but in the end I gained the bigger reward. ""}",,,,,,,,,,,,,,,,,,,,
w9aa2df4,,489273,survey-text,45609,"{""Q0"":""Find out which airport has the least expensive hotel and work my way back. ""}",,,,,,,,,,,,,,,,,,,,
wb69526c,,362427,survey-text,25998,"{""Q0"":""look at the numbers at the very end of each direction""}",,,,,,,,,,,,,,,,,,,,
wb69526c,,429630,survey-text,66181,"{""Q0"":""sometimes you have to lose some to make more"",""Q1"":""spending more on a product that will last much longer than a cheaper version."",""Q2"":""In web of cash you sometimes spend money to make more at the end and in the same way a more expensive item would give you more wear for its money""}",,,,,,,,,,,,,,,,,,,,
wb69526c,,516759,survey-text,86114,"{""Q0"":""check the end of the trip first ""}",,,,,,,,,,,,,,,,,,,,
w66fd2a5,,448928,survey-text,16967,"{""Q0"":""Check the end of the paths instead of the intermediate steps""}",,,,,,,,,,,,,,,,,,,,
w66fd2a5,,547131,survey-text,97192,"{""Q0"":""The biggest focus should be on the end, not on what you have to do to get there."",""Q1"":""While working on pulling off an event for campus I should focus on the bigger picture and what I want the end to look like instead of getting caught up looking at the smaller things. "",""Q2"":""In the Web of Cash game, the biggest focus should be on getting to the end where the most cash is earned. The middle isn't where the focus should be, rather the end goal.""}",,,,,,,,,,,,,,,,,,,,
w66fd2a5,,607607,survey-text,59437,"{""Q0"":""Instead of focusing on the entire journey, the focus should be more on the end goal and work backwards.""}",,,,,,,,,,,,,,,,,,,,
wd38882e,,376503,survey-text,46611,"{""Q0"":""look at the possible \""long term\"" goals and prioritize setting yourself up for success to teach the \""best\"" ones""}",,,,,,,,,,,,,,,,,,,,
wd38882e,,479140,survey-text,101627,"{""Q0"":""Do not let short-term set backs deter you from reaching your long term goals, just because something is good short term, does not mean it will make the most sense in the long run"",""Q1"":""going to college"",""Q2"":"" expensive and a lot of work in the short term but helpful to getting a better career in the long term""}",,,,,,,,,,,,,,,,,,,,
wd38882e,,566974,survey-text,86781,"{""Q0"":""not using a greedy heuristic (i..e picking the cheapest one at each decision point), rather looking at all possible routes and choosing which one serves you best in the long run.""}",,,,,,,,,,,,,,,,,,,,
wf1ff498,,565427,survey-text,28139,"{""Q0"":""Click the nodes towards the ends only, to see the end-game.""}",,,,,,,,,,,,,,,,,,,,
wf1ff498,,611900,survey-text,45450,"{""Q0"":""Don't go for short-term gains or losses."",""Q1"":""Work hard towards a goal in the end."",""Q2"":""Career choices""}",,,,,,,,,,,,,,,,,,,,
wf1ff498,,690374,survey-text,77470,"{""Q0"":""Find the cheapest flight with the cheapest hotel at the end.""}",,,,,,,,,,,,,,,,,,,,
wa6fe8d0,,290302,survey-text,45168,"{""Q0"":""Sometimes the clicks are worth it, in the long run. But evaluating the biggest positive long-term reward and clicking on those first. ""}",,,,,,,,,,,,,,,,,,,,
wa6fe8d0,,381428,survey-text,90105,"{""Q0"":""It is good to have a long-term goal and evaluate the best way of getting there. Sometimes you are going to have negative setbacks along the way, but they are nothing in comparison to the big reward of you longterm goal coming to fruition. Sometimes the obstacles are inevitable. "",""Q1"":""Career aspirations and education (loans, finances, etc.). "",""Q2"":""Temporary setback with loans to achieve your dream. ""}",,,,,,,,,,,,,,,,,,,,
wa6fe8d0,,420805,survey-text,38365,"{""Q0"":""Sometimes the risk and temporary setback is worth it in the end. ""}",,,,,,,,,,,,,,,,,,,,
wbcda7f6,,462529,survey-text,21803,"{""Q0"":""click the end nodes first, then figure out the path you want to take.""}",,,,,,,,,,,,,,,,,,,,
wbcda7f6,,556774,survey-text,93214,"{""Q0"":""Think about what you want to accomplish, then take the path of least resistance."",""Q1"":""Imagining what I want to do in a specific time frame, then conceptualize the roadblocks that might come along with that path."",""Q2"":""You have to find the path that has the biggest reward even if there are parts that will bring you down. ""}",,,,,,,,,,,,,,,,,,,,
wbcda7f6,,605163,survey-text,47383,"{""Q0"":""Find the path with the biggest discount even if it means having to subtract money a couple times""}",,,,,,,,,,,,,,,,,,,,
wbe66ad5,,888990,survey-text,80119,"{""Q0"":""Look to long term goals.""}",,,,,,,,,,,,,,,,,,,,
wbe66ad5,,986154,survey-text,96147,"{""Q0"":""Learning to plan ahead."",""Q1"":""Going for more education."",""Q2"":""Looking for high salary positions.""}",,,,,,,,,,,,,,,,,,,,
wbe66ad5,,1246966,survey-text,259805,"{""Q0"":""Select mid term goals.""}",,,,,,,,,,,,,,,,,,,,
wf89a7aa,,261117,survey-text,39390,"{""Q0"":""Only click the very outside numbers, if the number is 48 go towards that one. It's a better risk.""}",,,,,,,,,,,,,,,,,,,,
wf89a7aa,,335388,survey-text,73263,"{""Q0"":""You have to figure out which risks are worth the potential reward or loss."",""Q1"":""Choosing to move away to a new job where you don't know anyone, or to stay in your comfort zone where it is safe."",""Q2"":""You can't know what happens unless you try.""}",,,,,,,,,,,,,,,,,,,,
wf89a7aa,,384203,survey-text,47810,"{""Q0"":""Search for median amounts, see how much time is worth divulging into searching for cheap prices.""}",,,,,,,,,,,,,,,,,,,,
we723e30,,270984,survey-text,22159,"{""Q0"":""Study the node around you and learn the outcome.""}",,,,,,,,,,,,,,,,,,,,
we723e30,,465938,survey-text,193936,"{""Q0"":""Life is like a pathway that branches outward into many paths. Like the Robert Frost poem \""The Road Not Taken\"", where he talks about taking one road, but wishing he'd taken another. Think of this game as a way to learn to look things through thoroughly before you take the next step."",""Q1"":""Going back to college. Does the risk outweigh the rewards? I'm Immunocomprimised, and going back to school may effect my health for the worse, but if I went back, I could finish my Forensic Anthropology degree and maybe get work in the field."",""Q2"":""It's similar because I need to thoroughly think the outcomes and weigh the decisions before making a choice.""}",,,,,,,,,,,,,,,,,,,,
we723e30,,511131,survey-text,44138,"{""Q0"":""Looking ahead to see the least expensive hotels, would be the same as looking ahead to each node to see the amount.""}",,,,,,,,,,,,,,,,,,,,
wd54d5bf,,290130,survey-text,67215,"{""Q0"":""I can choose to see the last options of the paths to find the highest reward possible. If I can't find a good choice, I can then look at the second to last step of each path to be optimal. ""}",,,,,,,,,,,,,,,,,,,,
wd54d5bf,,405224,survey-text,114076,"{""Q0"":""Think of the long term option as the most important one and work your way there. "",""Q1"":""My time in college is a short term experience that could lead to a potentially successful career in the field I have chosen. "",""Q2"":""Because I am focused on the long term goals most of all, I can get through the potential negative short term goals to reach a better reward. ""}",,,,,,,,,,,,,,,,,,,,
wd54d5bf,,467783,survey-text,61556,"{""Q0"":""I will probably look at the last options and work my way backwards so I can avoid spending too much time on paths that don't give a good reward. ""}",,,,,,,,,,,,,,,,,,,,
w2f36b23,,280054,survey-text,14447,"{""Q0"":""Click the corners and once you see the 48 you can move""}",,,,,,,,,,,,,,,,,,,,
w2f36b23,,350281,survey-text,69220,"{""Q0"":""Prepare and learn the proper strategies in order to advance in life"",""Q1"":""In my photography business I can better pick better strategies"",""Q2"":""It makes you look at the board around you and choose options before acting""}",,,,,,,,,,,,,,,,,,,,
w2f36b23,,383536,survey-text,32234,"{""Q0"":""We're going to click the nodes around the corners to see which options are more viable.""}",,,,,,,,,,,,,,,,,,,,
wb8c40b5,,197619,survey-text,14618,"{""Q0"":""be strategic about my route\n""}",,,,,,,,,,,,,,,,,,,,
wb8c40b5,,275443,survey-text,76813,"{""Q0"":""be smart about your moves in life because they can cost you"",""Q1"":""going to college"",""Q2"":""if i fail a class it can set me back for the rest of the year""}",,,,,,,,,,,,,,,,,,,,
wb8c40b5,,352633,survey-text,76178,"{""Q0"":""being stragetic""}",,,,,,,,,,,,,,,,,,,,
w9c1cdbd,,429399,survey-text,19772,"{""Q0"":""click on only the outside ones""}",,,,,,,,,,,,,,,,,,,,
w9c1cdbd,,504168,survey-text,73760,"{""Q0"":""only the outside nodes/long term values matter because it will make up for the potential short term losses"",""Q1"":""take a lower paying job that has a chance of good promotions rather than a slightly higher paying job with no chance of promotions"",""Q2"":""you take risks to get you better rewards in the end""}",,,,,,,,,,,,,,,,,,,,
w9c1cdbd,,574210,survey-text,69009,"{""Q0"":""check the price of the end destinations first ""}",,,,,,,,,,,,,,,,,,,,
wc1a808e,,279876,survey-text,14196,"{""Q0"":""Look for the higher values on the outer level of nodes. ""}",,,,,,,,,,,,,,,,,,,,
wc1a808e,,449747,survey-text,168862,"{""Q0"":""It is better to keep the long-term consequences of your actions in the back of your mind than any potential short-term consequences."",""Q1"":""If you are involved in a task that in the short-term may involve a number of aggravating things to do but will result in a positive end result. For example, looking for a new job. "",""Q2"":""You must take some risks and perform some annoying or time-consuming tasks to lead up to a successful job application.""}",,,,,,,,,,,,,,,,,,,,
wc1a808e,,497258,survey-text,46503,"{""Q0"":""I would chose to leave out of the least expensive airport. ""}",,,,,,,,,,,,,,,,,,,,
w0ba048b,,404296,survey-text,41132,"{""Q0"":""Look for the largest amount of payout in the third step.""}",,,,,,,,,,,,,,,,,,,,
w0ba048b,,602032,survey-text,196684,"{""Q0"":""Evaluate the steps you take in life carefully. "",""Q1"":""Career paths"",""Q2"":""There are many steps with positive and negative outcomes but not all of them turn out with the greatest overall outcome. You have to evaluate all steps at length to make sure you have the best outcome overall. ""}",,,,,,,,,,,,,,,,,,,,
w0ba048b,,686813,survey-text,83737,"{""Q0"":""Find out the cheapest hotel at the destination as a jumping off point to the rest of the hotels. ""}",,,,,,,,,,,,,,,,,,,,
w640b3d8,,297319,survey-text,16727,"{""Q0"":""only reveal the farthest ones""}",,,,,,,,,,,,,,,,,,,,
w640b3d8,,364857,survey-text,66533,"{""Q0"":""Making small sacrifices might just lead you to a greater reward. "",""Q1"":""Taking a leap of faith on a job opportunity."",""Q2"":""I am willing to make a small sacrifice to travel everyday to work 30 minutes away for a greater reward in the end.""}",,,,,,,,,,,,,,,,,,,,
w640b3d8,,406827,survey-text,40967,"{""Q0"":""take shortest route possible with the first cheaper hotel found""}",,,,,,,,,,,,,,,,,,,,
w5e62b40,,303381,survey-text,61342,"{""Q0"":""Avoid paths where you revealed a negative number at the end.\n""}",,,,,,,,,,,,,,,,,,,,
w5e62b40,,466955,survey-text,162567,"{""Q0"":""Look at the long-term consequences of your actions, not just the short and mid-term consequences."",""Q1"":""I feel it'd be applicable to choosing your college major/career and taking into consideration the costs and if they'll be worth the reward. I chose a cheap college, because I was planning to major in art and that might not be as lucrative as other options."",""Q2"":""It's similar to if there was an alright final node, and I chose it because the preceding nodes weren't too costly.\n""}",,,,,,,,,,,,,,,,,,,,
w5e62b40,,536275,survey-text,68274,"{""Q0"":""Checking the price of the final cities' hotels instead of the other ones on the way.""}",,,,,,,,,,,,,,,,,,,,
w56c6462,,394959,survey-text,77531,"{""Q0"":""Not so sure, potentially you can look for patterns in how nodes are segmented or randomized. You can also set a spending limit for each round for how many nodes you will reveal. ""}",,,,,,,,,,,,,,,,,,,,
w56c6462,,670093,survey-text,274130,"{""Q0"":""I would tell them this game teaches you about chance and decision making and the importance of making informed decisions. The game also highlights the difficulty between long-term and short-term reward/consequences. You can spend your money to guarantee success ( but at what cost) or you can chance it to try for a big reward (but at what cost).  "",""Q1"":""I can't think of any personal examples within my own life. A potential situation could be when looking at two different jobs, one may be secure on paper and meet your minimal needs versus the other has the potential for a higher payout but there's more risk associated with the job. "",""Q2"":""That situation is similar because it puts you in a situation where you have to weigh your options and try to think into the future for what would be better. ""}",,,,,,,,,,,,,,,,,,,,
w56c6462,,771743,survey-text,100646,"{""Q0"":""Not sure. I would try to apply a similar strategy where I use the information available to me but not so much that it becomes a hinderance. ""}",,,,,,,,,,,,,,,,,,,,
w3726430,,384084,survey-text,27659,"{""Q0"":""Evaluate how much was being earned at the end""}",,,,,,,,,,,,,,,,,,,,
w3726430,,484606,survey-text,99512,"{""Q0"":""it doesn't matter what happens in the middle but it matters at the end"",""Q1"":""you have to go through negatives before you reach the positive"",""Q2"":""when there is a bump in the road but you make through it""}",,,,,,,,,,,,,,,,,,,,
w3726430,,530798,survey-text,45169,"{""Q0"":""To focus on the greater outcome ""}",,,,,,,,,,,,,,,,,,,,
w9edebde,,460598,survey-text,66558,"{""Q0"":""go to the path with plus 48(green) right away""}",,,,,,,,,,,,,,,,,,,,
w9edebde,,688701,survey-text,227092,"{""Q0"":""look at the corners where you will find the higher numbers and not random tiles"",""Q1"":""looking later in life for what certain choices might lead me"",""Q2"":""looking at the tiles not on the outer part is a bad idea because you have to waste more money looking at the best route and thats like doing things in the moment whereas looking at the higher number tiles is like thinking about some decision in the long run""}",,,,,,,,,,,,,,,,,,,,
w9edebde,,774504,survey-text,84778,"{""Q0"":""in web of cash you i was trying to find strategic ways to get the most cash and this time i am trying to find a way to spend the least amount""}",,,,,,,,,,,,,,,,,,,,
w9ff666f,,409306,survey-text,40436,"{""Q0"":""Click on the furthest grey circles from center to see find the largest amount of money I can earn or lose first.""}",,,,,,,,,,,,,,,,,,,,
w9ff666f,,589108,survey-text,178771,"{""Q0"":""I would tell them to look at the big picture and the end result and determine if it will be beneficial or not before taking the steps to get there."",""Q1"":""As a teacher, this strategy might work with well with students and deciding which behaviors to correct first in order to get toward the long term goal of good behavior."",""Q2"":""Like the Web of Cash game, changing behavior can have set backs along the way to good behavior and you can make a mistake that reinforces bad behavior if you're not careful.""}",,,,,,,,,,,,,,,,,,,,
w9ff666f,,654946,survey-text,64810,"{""Q0"":""I'll check which airports have the least expensive hotel first and then head in that direction.""}",,,,,,,,,,,,,,,,,,,,
w4a30da9,,467327,survey-text,93937,"{""Q0"":""Start with the first nodes in each direction and investigate paths with a positive amount first. If there is a path that has a +$48 that is likely the best path.""}",,,,,,,,,,,,,,,,,,,,
w4a30da9,,745220,survey-text,276878,"{""Q0"":""Often negatives to an option can be \""cancelled out\"" by other positives in the path. Sometimes you have to take small hits to get to a bigger positive."",""Q1"":""Taking a new job that may pay less than your current job but is more related to what you want to do and/or has more room for growth and promotions."",""Q2"":""You have to take a small disadvantage (lower pay) for a bigger benefit (more enjoyable/more growth).""}",,,,,,,,,,,,,,,,,,,,
w4a30da9,,830618,survey-text,84391,"{""Q0"":""Find the best airport route (shortest, fastest, etc) and only look for hotels in those cities.""}",,,,,,,,,,,,,,,,,,,,
w65b1cc3,,578244,survey-text,38691,"{""Q0"":""You can do extra research to make sure that the choices you are going to make will benefit you in the long run.""}",,,,,,,,,,,,,,,,,,,,
w65b1cc3,,671616,survey-text,92358,"{""Q0"":""I would recommend before choosing a certain thing, take a step back and make sure it's what you really should be doing."",""Q1"":""An example from my own life is choosing a school to transfer too. "",""Q2"":""It's similar because if I make a wrong move, it can effect my whole future and my career.""}",,,,,,,,,,,,,,,,,,,,
w65b1cc3,,752432,survey-text,79792,"{""Q0"":""Don't make any decisions too quickly. Even if I want to plan the trip as quick as possible, really think about your decision. ""}",,,,,,,,,,,,,,,,,,,,
w04080c1,,697657,survey-text,19068,"{""Q0"":""pay more attention.""}",,,,,,,,,,,,,,,,,,,,
w04080c1,,736303,survey-text,37639,"{""Q0"":""just be attentive."",""Q1"":""school"",""Q2"":""many ways.""}",,,,,,,,,,,,,,,,,,,,
w04080c1,,759981,survey-text,22668,"{""Q0"":""several ways""}",,,,,,,,,,,,,,,,,,,,
w43ee317,,397504,survey-text,13416,"{""Q0"":""Click the final long range values.""}",,,,,,,,,,,,,,,,,,,,
w43ee317,,459388,survey-text,60874,"{""Q0"":""Acting without a plan can have serious consequences."",""Q1"":""Financial planning! Especially retirement. "",""Q2"":""It's similar because there are always risks but it's beneficial to play the long game. ""}",,,,,,,,,,,,,,,,,,,,
w43ee317,,504592,survey-text,44197,"{""Q0"":""Choose the final destination and go from there.""}",,,,,,,,,,,,,,,,,,,,
wd9e459e,,595531,survey-text,30852,"{""Q0"":""Start on the outside to see where the highest value node is.""}",,,,,,,,,,,,,,,,,,,,
wd9e459e,,683027,survey-text,86485,"{""Q0"":""An investment when your young can become a huge reward when you're old."",""Q1"":""Going to graduate school. "",""Q2"":""It's an investment of my time and energy that will pay off in a better career and salary when I get older. ""}",,,,,,,,,,,,,,,,,,,,
wd9e459e,,734700,survey-text,50665,"{""Q0"":""Start with the outermost cities to find the best path. ""}",,,,,,,,,,,,,,,,,,,,
w6eda0fe,,268571,survey-text,42497,"{""Q0"":""Theres no way of knowing if there is a tie after looking at the big goals""}",,,,,,,,,,,,,,,,,,,,
w6eda0fe,,349556,survey-text,79960,"{""Q0"":""Look further out at the long term goals to determine if these short term losses/ payouts are worth it"",""Q1"":""Deciding to go to graduate school in order to get a better job later. "",""Q2"":""Short term loss for a long term gain ""}",,,,,,,,,,,,,,,,,,,,
w6eda0fe,,403146,survey-text,52583,"{""Q0"":""Sacrificing the time now will save money in the long term""}",,,,,,,,,,,,,,,,,,,,
we440f1e,,291971,survey-text,82410,"{""Q0"":""It seems to be mostly luck, and the only way to find a good path is to risk it. ""}",,,,,,,,,,,,,,,,,,,,
